subject,version,assignmentId,rating,question_ind,trial_ind,green_prob,blue_prob,rt,stamp,id
A2YQBBAK7NBZHU,caus_thomas_all_dis_v1,3EQHHY4HQST33A6ZXIEWLZ93FR25GL,8,0,0,8,1,30059,9/18/17 14:06,10277
A2XFO0X6RCS98M,caus_thomas_all_dis_v1,3WZ36BJEV3H9XV9EIS4GN4OKFHVTBI,5,0,0,4,4,10210,9/18/17 14:06,10278
A36OLZLW29173F,caus_thomas_all_dis_v1,3OLF68YTN92UVGMLHUZVBPPD6Q3AFX,8,0,0,8,6,27605,9/18/17 14:06,10279
A2Z2OV7QGU10QN,caus_thomas_all_dis_v1,34X6J5FLPTZ2NYFYPGN2GNWA3F5QJM,8,0,0,8,6,31147,9/18/17 14:06,10280
ALYR5CI2SM2JC,caus_thomas_all_dis_v1,3F0BG9B9MPOIC55IFHFZQJU3BTN7Y0,8,0,0,6,1,41691,9/18/17 14:06,10281
A2YQBBAK7NBZHU,caus_thomas_all_dis_v1,3EQHHY4HQST33A6ZXIEWLZ93FR25GL,8,1,1,7,5,16568,9/18/17 14:06,10282
A2XFO0X6RCS98M,caus_thomas_all_dis_v1,3WZ36BJEV3H9XV9EIS4GN4OKFHVTBI,6,1,1,9,9,11878,9/18/17 14:06,10283
A2Z2OV7QGU10QN,caus_thomas_all_dis_v1,34X6J5FLPTZ2NYFYPGN2GNWA3F5QJM,0,1,1,6,5,13440,9/18/17 14:06,10284
A2XFO0X6RCS98M,caus_thomas_all_dis_v1,3WZ36BJEV3H9XV9EIS4GN4OKFHVTBI,2,2,2,6,8,6397,9/18/17 14:06,10285
A36OLZLW29173F,caus_thomas_all_dis_v1,3OLF68YTN92UVGMLHUZVBPPD6Q3AFX,7,1,1,6,2,19357,9/18/17 14:06,10286
A2YQBBAK7NBZHU,caus_thomas_all_dis_v1,3EQHHY4HQST33A6ZXIEWLZ93FR25GL,8,2,2,5,8,16660,9/18/17 14:06,10287
ALYR5CI2SM2JC,caus_thomas_all_dis_v1,3F0BG9B9MPOIC55IFHFZQJU3BTN7Y0,8,1,1,5,2,17138,9/18/17 14:06,10288
A3S1RAA0VUVQK,caus_thomas_all_dis_v1,31LM9EDVOLTHK1269OVLCT15Y4INJW,8,0,0,9,5,40995,9/18/17 14:06,10289
A2WYEOT1O3OXPS,caus_thomas_all_dis_v1,3TEM0PF1Q5Y1WJA7YM7CYJAFLRB0DL,8,0,0,10,6,49694,9/18/17 14:06,10290
A2XFO0X6RCS98M,caus_thomas_all_dis_v1,3WZ36BJEV3H9XV9EIS4GN4OKFHVTBI,1,3,3,5,1,7634,9/18/17 14:06,10291
A10LLZZHZVGWRW,caus_thomas_all_dis_v1,3SBEHTYCWN4F1PMEY8JWH8KCP9XYIL,4,0,0,4,10,19379,9/18/17 14:06,10292
AFWKRID53R1XA,caus_thomas_all_dis_v1,3Y5140Z9DXHLSBUD7LND4HR0L4VIPC,6,0,0,1,9,29819,9/18/17 14:06,10293
A36OLZLW29173F,caus_thomas_all_dis_v1,3OLF68YTN92UVGMLHUZVBPPD6Q3AFX,7,2,2,10,7,7296,9/18/17 14:06,10294
A163J5TEJBO43B,caus_thomas_all_dis_v1,3KWTYT08704JP2K089BCYREBB8O5LR,8,0,0,8,10,37854,9/18/17 14:06,10295
A2Z2OV7QGU10QN,caus_thomas_all_dis_v1,34X6J5FLPTZ2NYFYPGN2GNWA3F5QJM,8,2,2,7,8,11889,9/18/17 14:06,10296
A2XFO0X6RCS98M,caus_thomas_all_dis_v1,3WZ36BJEV3H9XV9EIS4GN4OKFHVTBI,5,4,4,2,7,6516,9/18/17 14:06,10297
A36OLZLW29173F,caus_thomas_all_dis_v1,3OLF68YTN92UVGMLHUZVBPPD6Q3AFX,7,3,3,9,10,5314,9/18/17 14:06,10298
A2YQBBAK7NBZHU,caus_thomas_all_dis_v1,3EQHHY4HQST33A6ZXIEWLZ93FR25GL,8,3,3,3,9,14810,9/18/17 14:06,10299
ALYR5CI2SM2JC,caus_thomas_all_dis_v1,3F0BG9B9MPOIC55IFHFZQJU3BTN7Y0,4,2,2,4,10,15012,9/18/17 14:06,10300
A36OLZLW29173F,caus_thomas_all_dis_v1,3OLF68YTN92UVGMLHUZVBPPD6Q3AFX,7,4,4,3,3,3581,9/18/17 14:06,10301
A3S1RAA0VUVQK,caus_thomas_all_dis_v1,31LM9EDVOLTHK1269OVLCT15Y4INJW,8,1,1,4,4,17003,9/18/17 14:06,10302
AFWKRID53R1XA,caus_thomas_all_dis_v1,3Y5140Z9DXHLSBUD7LND4HR0L4VIPC,7,1,1,7,3,14199,9/18/17 14:06,10303
A2Z2OV7QGU10QN,caus_thomas_all_dis_v1,34X6J5FLPTZ2NYFYPGN2GNWA3F5QJM,8,3,3,1,10,9738,9/18/17 14:06,10304
A10LLZZHZVGWRW,caus_thomas_all_dis_v1,3SBEHTYCWN4F1PMEY8JWH8KCP9XYIL,4,1,1,8,3,17293,9/18/17 14:07,10305
ALYR5CI2SM2JC,caus_thomas_all_dis_v1,3F0BG9B9MPOIC55IFHFZQJU3BTN7Y0,8,3,3,3,7,5731,9/18/17 14:07,10306
A2YQBBAK7NBZHU,caus_thomas_all_dis_v1,3EQHHY4HQST33A6ZXIEWLZ93FR25GL,8,4,4,1,3,7679,9/18/17 14:07,10307
A2WYEOT1O3OXPS,caus_thomas_all_dis_v1,3TEM0PF1Q5Y1WJA7YM7CYJAFLRB0DL,4,1,1,4,4,22218,9/18/17 14:07,10308
A163J5TEJBO43B,caus_thomas_all_dis_v1,3KWTYT08704JP2K089BCYREBB8O5LR,0,1,1,10,3,19918,9/18/17 14:07,10309
ALYR5CI2SM2JC,caus_thomas_all_dis_v1,3F0BG9B9MPOIC55IFHFZQJU3BTN7Y0,8,4,4,8,6,3771,9/18/17 14:07,10310
A3S1RAA0VUVQK,caus_thomas_all_dis_v1,31LM9EDVOLTHK1269OVLCT15Y4INJW,8,2,2,8,8,11584,9/18/17 14:07,10311
A10LLZZHZVGWRW,caus_thomas_all_dis_v1,3SBEHTYCWN4F1PMEY8JWH8KCP9XYIL,5,2,2,9,5,7747,9/18/17 14:07,10312
A2Z2OV7QGU10QN,caus_thomas_all_dis_v1,34X6J5FLPTZ2NYFYPGN2GNWA3F5QJM,8,4,4,2,4,13761,9/18/17 14:07,10313
A2WYEOT1O3OXPS,caus_thomas_all_dis_v1,3TEM0PF1Q5Y1WJA7YM7CYJAFLRB0DL,4,2,2,1,5,6339,9/18/17 14:07,10314
AFWKRID53R1XA,caus_thomas_all_dis_v1,3Y5140Z9DXHLSBUD7LND4HR0L4VIPC,5,2,2,2,7,15705,9/18/17 14:07,10315
A12VU5YSHGQH2V,caus_thomas_all_dis_v1,3IO1LGZLK9YKTZ0VJ3CDLS65N3086O,8,0,0,8,7,22738,9/18/17 14:07,10316
A2WYEOT1O3OXPS,caus_thomas_all_dis_v1,3TEM0PF1Q5Y1WJA7YM7CYJAFLRB0DL,4,3,3,7,1,3805,9/18/17 14:07,10317
A3S1RAA0VUVQK,caus_thomas_all_dis_v1,31LM9EDVOLTHK1269OVLCT15Y4INJW,8,3,3,3,1,7982,9/18/17 14:07,10318
A10LLZZHZVGWRW,caus_thomas_all_dis_v1,3SBEHTYCWN4F1PMEY8JWH8KCP9XYIL,5,3,3,6,1,9421,9/18/17 14:07,10319
A163J5TEJBO43B,caus_thomas_all_dis_v1,3KWTYT08704JP2K089BCYREBB8O5LR,4,2,2,9,6,16814,9/18/17 14:07,10320
A2YO837C0O1E91,caus_thomas_all_dis_v1,3TOK3KHVJTJ6IR1G9U61OSW1XJO7OP,8,0,0,6,3,89207,9/18/17 14:07,10321
AFWKRID53R1XA,caus_thomas_all_dis_v1,3Y5140Z9DXHLSBUD7LND4HR0L4VIPC,7,3,3,4,6,8959,9/18/17 14:07,10322
A2WYEOT1O3OXPS,caus_thomas_all_dis_v1,3TEM0PF1Q5Y1WJA7YM7CYJAFLRB0DL,4,4,4,8,2,7138,9/18/17 14:07,10323
A3S1RAA0VUVQK,caus_thomas_all_dis_v1,31LM9EDVOLTHK1269OVLCT15Y4INJW,8,4,4,7,6,6199,9/18/17 14:07,10324
A10LLZZHZVGWRW,caus_thomas_all_dis_v1,3SBEHTYCWN4F1PMEY8JWH8KCP9XYIL,5,4,4,7,8,6787,9/18/17 14:07,10325
A12VU5YSHGQH2V,caus_thomas_all_dis_v1,3IO1LGZLK9YKTZ0VJ3CDLS65N3086O,8,1,1,1,1,15223,9/18/17 14:07,10326
AFWKRID53R1XA,caus_thomas_all_dis_v1,3Y5140Z9DXHLSBUD7LND4HR0L4VIPC,2,4,4,5,10,7497,9/18/17 14:07,10327
A2YO837C0O1E91,caus_thomas_all_dis_v1,3TOK3KHVJTJ6IR1G9U61OSW1XJO7OP,7,1,1,9,10,13684,9/18/17 14:07,10328
A2R794P3E8X0MK,caus_thomas_all_dis_v1,354P56DE9K4LGJT9GBNA8X62U8R7SM,7,0,0,10,4,37253,9/18/17 14:07,10329
A2O19SRDLSQDP6,caus_thomas_all_dis_v1,3DPNQGW4LLGJAYDT70M04GQ0LH464F,8,0,0,4,9,51745,9/18/17 14:07,10330
A163J5TEJBO43B,caus_thomas_all_dis_v1,3KWTYT08704JP2K089BCYREBB8O5LR,5,3,3,1,2,18123,9/18/17 14:07,10331
A12VU5YSHGQH2V,caus_thomas_all_dis_v1,3IO1LGZLK9YKTZ0VJ3CDLS65N3086O,8,2,2,3,4,11371,9/18/17 14:07,10332
A12VU5YSHGQH2V,caus_thomas_all_dis_v1,3IO1LGZLK9YKTZ0VJ3CDLS65N3086O,8,3,3,9,2,5283,9/18/17 14:07,10333
ACIHCWKHNFC7U,caus_thomas_all_dis_v1,3KOPY89HM83AGX9WR5B63F3ZTNS3JX,4,0,0,5,3,2826,9/18/17 14:07,10334
ACIHCWKHNFC7U,caus_thomas_all_dis_v1,3KOPY89HM83AGX9WR5B63F3ZTNS3JX,6,1,1,9,8,2599,9/18/17 14:07,10335
ACIHCWKHNFC7U,caus_thomas_all_dis_v1,3KOPY89HM83AGX9WR5B63F3ZTNS3JX,3,2,2,2,2,1913,9/18/17 14:07,10336
A163J5TEJBO43B,caus_thomas_all_dis_v1,3KWTYT08704JP2K089BCYREBB8O5LR,7,4,4,2,8,14008,9/18/17 14:07,10337
ACIHCWKHNFC7U,caus_thomas_all_dis_v1,3KOPY89HM83AGX9WR5B63F3ZTNS3JX,5,3,3,6,5,1814,9/18/17 14:07,10338
A12VU5YSHGQH2V,caus_thomas_all_dis_v1,3IO1LGZLK9YKTZ0VJ3CDLS65N3086O,8,4,4,2,3,9789,9/18/17 14:08,10339
A2R794P3E8X0MK,caus_thomas_all_dis_v1,354P56DE9K4LGJT9GBNA8X62U8R7SM,8,1,1,4,10,20100,9/18/17 14:08,10340
ACIHCWKHNFC7U,caus_thomas_all_dis_v1,3KOPY89HM83AGX9WR5B63F3ZTNS3JX,6,4,4,4,9,1780,9/18/17 14:08,10341
A2O19SRDLSQDP6,caus_thomas_all_dis_v1,3DPNQGW4LLGJAYDT70M04GQ0LH464F,8,1,1,7,4,21877,9/18/17 14:08,10342
"A342YLIMT6THWO",caus_thomas_all_dis_v1,3ZPBJO59KP2C7JG3WUEX4B9W78DDH0,8,0,0,9,9,53023,9/18/17 14:08,10343
A35C12CR628WKD,caus_thomas_all_dis_v1,3DHE4R9OCWCB4DNCFZCYNS6RVHBG2V,4,0,0,2,5,21662,9/18/17 14:08,10344
ATY2JKVS3OYUV,caus_thomas_all_dis_v1,3KB8R4ZV1E85SQN8YS59OL9VPNOGBX,8,0,0,8,7,38438,9/18/17 14:08,10345
AV581SCZZM1YE,caus_thomas_all_dis_v1,3K2755HG5S4STNPX14QX1QXJRT0DF2,4,0,0,4,5,84942,9/18/17 14:08,10346
A1TSVP4XC9NTR4,caus_thomas_all_dis_v1,3OHYZ19UGC6O1TZEGXILYJYRYRUAOJ,8,0,0,8,6,89901,9/18/17 14:08,10347
A3KCT51PDCLUFD,caus_thomas_all_dis_v1,3Z2R0DQ0JHFDKZRL94MANPLFI1W2E0,0,0,0,3,3,20655,9/18/17 14:08,10348
A1N4O370NJB9U8,caus_thomas_all_dis_v1,3L2IS5HSFAJQYHD0LNZZJVAGFKGNUS,8,0,0,6,2,110837,9/18/17 14:08,10349
A35C12CR628WKD,caus_thomas_all_dis_v1,3DHE4R9OCWCB4DNCFZCYNS6RVHBG2V,0,1,1,10,10,8773,9/18/17 14:08,10350
AV581SCZZM1YE,caus_thomas_all_dis_v1,3K2755HG5S4STNPX14QX1QXJRT0DF2,5,1,1,10,1,9264,9/18/17 14:08,10351
A2R794P3E8X0MK,caus_thomas_all_dis_v1,354P56DE9K4LGJT9GBNA8X62U8R7SM,7,2,2,7,7,17169,9/18/17 14:08,10352
A2O19SRDLSQDP6,caus_thomas_all_dis_v1,3DPNQGW4LLGJAYDT70M04GQ0LH464F,6,2,2,2,10,15747,9/18/17 14:08,10353
A28HB7240OFGEW,caus_thomas_all_dis_v1,3FTYUGLFSUM0RQW8VSDOFE662ZM5DB,8,0,0,3,2,37746,9/18/17 14:08,10354
AROEBUDI2L9G9,caus_thomas_all_dis_v1,3SEPORI8WN000XDLI6T2EH5VIVXAZL,8,0,0,2,3,33020,9/18/17 14:08,10355
ALZQCQHWYUTP,caus_thomas_all_dis_v1,3WJEQKOXA83351SDAVKAMNLJ5GK1AN,8,0,0,4,7,36938,9/18/17 14:08,10356
A35C12CR628WKD,caus_thomas_all_dis_v1,3DHE4R9OCWCB4DNCFZCYNS6RVHBG2V,4,2,2,7,3,13214,9/18/17 14:08,10357
AV581SCZZM1YE,caus_thomas_all_dis_v1,3K2755HG5S4STNPX14QX1QXJRT0DF2,8,2,2,8,9,10507,9/18/17 14:08,10358
A3KCT51PDCLUFD,caus_thomas_all_dis_v1,3Z2R0DQ0JHFDKZRL94MANPLFI1W2E0,2,1,1,7,4,19858,9/18/17 14:08,10359
A1N4O370NJB9U8,caus_thomas_all_dis_v1,3L2IS5HSFAJQYHD0LNZZJVAGFKGNUS,8,1,1,7,10,20436,9/18/17 14:08,10360
A2R794P3E8X0MK,caus_thomas_all_dis_v1,354P56DE9K4LGJT9GBNA8X62U8R7SM,8,3,3,5,6,11960,9/18/17 14:08,10361
A35C12CR628WKD,caus_thomas_all_dis_v1,3DHE4R9OCWCB4DNCFZCYNS6RVHBG2V,4,3,3,6,6,3502,9/18/17 14:08,10362
A2O19SRDLSQDP6,caus_thomas_all_dis_v1,3DPNQGW4LLGJAYDT70M04GQ0LH464F,8,3,3,8,7,11264,9/18/17 14:08,10363
"A342YLIMT6THWO",caus_thomas_all_dis_v1,3ZPBJO59KP2C7JG3WUEX4B9W78DDH0,8,1,1,4,10,30059,9/18/17 14:08,10364
A35C12CR628WKD,caus_thomas_all_dis_v1,3DHE4R9OCWCB4DNCFZCYNS6RVHBG2V,6,4,4,9,7,2939,9/18/17 14:08,10365
ATY2JKVS3OYUV,caus_thomas_all_dis_v1,3KB8R4ZV1E85SQN8YS59OL9VPNOGBX,3,1,1,7,3,32190,9/18/17 14:08,10366
AROEBUDI2L9G9,caus_thomas_all_dis_v1,3SEPORI8WN000XDLI6T2EH5VIVXAZL,8,1,1,8,9,16554,9/18/17 14:08,10367
A28HB7240OFGEW,caus_thomas_all_dis_v1,3FTYUGLFSUM0RQW8VSDOFE662ZM5DB,8,1,1,2,8,17521,9/18/17 14:08,10368
A1TSVP4XC9NTR4,caus_thomas_all_dis_v1,3OHYZ19UGC6O1TZEGXILYJYRYRUAOJ,8,1,1,2,8,36622,9/18/17 14:08,10369
A2O19SRDLSQDP6,caus_thomas_all_dis_v1,3DPNQGW4LLGJAYDT70M04GQ0LH464F,8,4,4,6,8,12027,9/18/17 14:08,10370
ALZQCQHWYUTP,caus_thomas_all_dis_v1,3WJEQKOXA83351SDAVKAMNLJ5GK1AN,7,1,1,2,5,17569,9/18/17 14:08,10371
A2R794P3E8X0MK,caus_thomas_all_dis_v1,354P56DE9K4LGJT9GBNA8X62U8R7SM,5,4,4,3,2,15155,9/18/17 14:08,10372
"A342YLIMT6THWO",caus_thomas_all_dis_v1,3ZPBJO59KP2C7JG3WUEX4B9W78DDH0,8,2,2,2,3,18213,9/18/17 14:08,10373
A28HB7240OFGEW,caus_thomas_all_dis_v1,3FTYUGLFSUM0RQW8VSDOFE662ZM5DB,8,2,2,8,1,8121,9/18/17 14:08,10374
AROEBUDI2L9G9,caus_thomas_all_dis_v1,3SEPORI8WN000XDLI6T2EH5VIVXAZL,8,2,2,7,1,9095,9/18/17 14:08,10375
ATY2JKVS3OYUV,caus_thomas_all_dis_v1,3KB8R4ZV1E85SQN8YS59OL9VPNOGBX,8,2,2,3,8,14489,9/18/17 14:08,10376
ALZQCQHWYUTP,caus_thomas_all_dis_v1,3WJEQKOXA83351SDAVKAMNLJ5GK1AN,7,2,2,9,8,11434,9/18/17 14:09,10377
AROEBUDI2L9G9,caus_thomas_all_dis_v1,3SEPORI8WN000XDLI6T2EH5VIVXAZL,8,3,3,3,10,7232,9/18/17 14:09,10378
A2T9GR0UCUVDXG,caus_thomas_all_dis_v1,3EF8EXOTT1WE6UVH41XNFMO2V3E1J3,4,0,0,3,3,21898,9/18/17 14:09,10379
"A342YLIMT6THWO",caus_thomas_all_dis_v1,3ZPBJO59KP2C7JG3WUEX4B9W78DDH0,8,3,3,10,8,8560,9/18/17 14:09,10380
AT3NSILK1BP46,caus_thomas_all_dis_v1,3RSDURM96AN3LKKS2PT5WTMKXGQYEC,8,0,0,1,4,28966,9/18/17 14:09,10381
A3J8F637SP7XIY,caus_thomas_all_dis_v1,3VW6495TLJ11RP1J2Q5Z3WE0FSVYYR,1,0,0,2,9,21509,9/18/17 14:09,10382
A28HB7240OFGEW,caus_thomas_all_dis_v1,3FTYUGLFSUM0RQW8VSDOFE662ZM5DB,8,3,3,6,4,8857,9/18/17 14:09,10383
A2YO837C0O1E91,caus_thomas_all_dis_v1,3TOK3KHVJTJ6IR1G9U61OSW1XJO7OP,8,2,2,1,9,86562,9/18/17 14:09,10384
A1TSVP4XC9NTR4,caus_thomas_all_dis_v1,3OHYZ19UGC6O1TZEGXILYJYRYRUAOJ,8,2,2,1,1,19037,9/18/17 14:09,10385
A1N4O370NJB9U8,caus_thomas_all_dis_v1,3L2IS5HSFAJQYHD0LNZZJVAGFKGNUS,8,2,2,3,8,35348,9/18/17 14:09,10386
A3KCT51PDCLUFD,caus_thomas_all_dis_v1,3Z2R0DQ0JHFDKZRL94MANPLFI1W2E0,1,2,2,4,6,37691,9/18/17 14:09,10387
A3J8F637SP7XIY,caus_thomas_all_dis_v1,3VW6495TLJ11RP1J2Q5Z3WE0FSVYYR,4,1,1,4,8,5055,9/18/17 14:09,10388
ATY2JKVS3OYUV,caus_thomas_all_dis_v1,3KB8R4ZV1E85SQN8YS59OL9VPNOGBX,4,3,3,5,4,14505,9/18/17 14:09,10389
A1CH6M8KNYMJ92,caus_thomas_all_dis_v1,38JBBYETQOBNND68DI5YG4ID2FSE48,8,0,0,10,1,23887,9/18/17 14:09,10390
"A342YLIMT6THWO",caus_thomas_all_dis_v1,3ZPBJO59KP2C7JG3WUEX4B9W78DDH0,8,4,4,1,6,8057,9/18/17 14:09,10391
AROEBUDI2L9G9,caus_thomas_all_dis_v1,3SEPORI8WN000XDLI6T2EH5VIVXAZL,8,4,4,1,5,9179,9/18/17 14:09,10392
ALZQCQHWYUTP,caus_thomas_all_dis_v1,3WJEQKOXA83351SDAVKAMNLJ5GK1AN,7,3,3,8,3,13005,9/18/17 14:09,10393
A3J8F637SP7XIY,caus_thomas_all_dis_v1,3VW6495TLJ11RP1J2Q5Z3WE0FSVYYR,8,2,2,9,3,3209,9/18/17 14:09,10394
A2T9GR0UCUVDXG,caus_thomas_all_dis_v1,3EF8EXOTT1WE6UVH41XNFMO2V3E1J3,0,1,1,10,6,11324,9/18/17 14:09,10395
A3KCT51PDCLUFD,caus_thomas_all_dis_v1,3Z2R0DQ0JHFDKZRL94MANPLFI1W2E0,0,3,3,1,5,6148,9/18/17 14:09,10396
A28HB7240OFGEW,caus_thomas_all_dis_v1,3FTYUGLFSUM0RQW8VSDOFE662ZM5DB,8,4,4,1,9,11061,9/18/17 14:09,10397
A3B9OZQTE4US3T,caus_thomas_all_dis_v1,3B2X28YI3WG3VXY2MFWNCUW6V9LB6Q,8,0,0,5,7,35022,9/18/17 14:09,10398
A1N4O370NJB9U8,caus_thomas_all_dis_v1,3L2IS5HSFAJQYHD0LNZZJVAGFKGNUS,8,3,3,10,9,9693,9/18/17 14:09,10399
A2YO837C0O1E91,caus_thomas_all_dis_v1,3TOK3KHVJTJ6IR1G9U61OSW1XJO7OP,8,3,3,8,8,12283,9/18/17 14:09,10400
A3J8F637SP7XIY,caus_thomas_all_dis_v1,3VW6495TLJ11RP1J2Q5Z3WE0FSVYYR,7,3,3,8,5,3332,9/18/17 14:09,10401
A1TSVP4XC9NTR4,caus_thomas_all_dis_v1,3OHYZ19UGC6O1TZEGXILYJYRYRUAOJ,8,3,3,10,5,12437,9/18/17 14:09,10402
ATY2JKVS3OYUV,caus_thomas_all_dis_v1,3KB8R4ZV1E85SQN8YS59OL9VPNOGBX,7,4,4,4,6,8835,9/18/17 14:09,10403
A110KENBXU7SUJ,caus_thomas_all_dis_v1,3DIP6YHAPCTO6ETAPLVBXGYI41OE8F,4,0,0,7,4,24827,9/18/17 14:09,10404
A1CH6M8KNYMJ92,caus_thomas_all_dis_v1,38JBBYETQOBNND68DI5YG4ID2FSE48,8,1,1,9,10,9661,9/18/17 14:09,10405
AESEZX8S7Z3IC,caus_thomas_all_dis_v1,3AMYWKA6YBNNERNBQK19IEW52846OP,3,0,0,9,3,32628,9/18/17 14:09,10406
A3J8F637SP7XIY,caus_thomas_all_dis_v1,3VW6495TLJ11RP1J2Q5Z3WE0FSVYYR,0,4,4,1,10,2807,9/18/17 14:09,10407
A3KCT51PDCLUFD,caus_thomas_all_dis_v1,3Z2R0DQ0JHFDKZRL94MANPLFI1W2E0,2,4,4,5,1,7633,9/18/17 14:09,10408
ALZQCQHWYUTP,caus_thomas_all_dis_v1,3WJEQKOXA83351SDAVKAMNLJ5GK1AN,7,4,4,10,4,9495,9/18/17 14:09,10409
A29XBKJC7OQ1VQ,caus_thomas_all_dis_v1,35GCEFQ6I5P0GCE09RESR9RPCL4Z3D,8,0,0,7,5,31766,9/18/17 14:09,10410
A136SBQYT4RFKX,caus_thomas_all_dis_v1,30BUDKLTXDW5JWA8RNO8LWOR2BNE5D,6,0,0,8,5,32061,9/18/17 14:09,10411
A2T9GR0UCUVDXG,caus_thomas_all_dis_v1,3EF8EXOTT1WE6UVH41XNFMO2V3E1J3,2,2,2,9,2,9549,9/18/17 14:09,10412
A2YO837C0O1E91,caus_thomas_all_dis_v1,3TOK3KHVJTJ6IR1G9U61OSW1XJO7OP,7,4,4,7,7,7237,9/18/17 14:09,10413
A6VQ0UN0ETESM,caus_thomas_all_dis_v1,3EFVCAY5L3AWHUF23M62UWBA99KJ85,8,0,0,3,5,77811,9/18/17 14:09,10414
A1N4O370NJB9U8,caus_thomas_all_dis_v1,3L2IS5HSFAJQYHD0LNZZJVAGFKGNUS,8,4,4,5,4,8357,9/18/17 14:09,10415
A2T9GR0UCUVDXG,caus_thomas_all_dis_v1,3EF8EXOTT1WE6UVH41XNFMO2V3E1J3,3,3,3,6,4,2604,9/18/17 14:09,10416
A2PFTBGIF2Q6LJ,caus_thomas_all_dis_v1,3D3VGR7TA0GRELS9ZAKF56PQ34M3RP,7,0,0,5,5,35984,9/18/17 14:09,10417
A1TSVP4XC9NTR4,caus_thomas_all_dis_v1,3OHYZ19UGC6O1TZEGXILYJYRYRUAOJ,8,4,4,6,3,12494,9/18/17 14:09,10418
A2T9GR0UCUVDXG,caus_thomas_all_dis_v1,3EF8EXOTT1WE6UVH41XNFMO2V3E1J3,4,4,4,4,5,3630,9/18/17 14:09,10419
A1CH6M8KNYMJ92,caus_thomas_all_dis_v1,38JBBYETQOBNND68DI5YG4ID2FSE48,8,2,2,6,2,12037,9/18/17 14:09,10420
AESEZX8S7Z3IC,caus_thomas_all_dis_v1,3AMYWKA6YBNNERNBQK19IEW52846OP,4,1,1,5,4,12463,9/18/17 14:09,10421
A2RR04JS69Z5LE,caus_thomas_all_dis_v1,3Z3ZLGNNSIVR2KD9MVVF0GFL7IK3QO,2,0,0,6,7,23890,9/18/17 14:09,10422
AT3NSILK1BP46,caus_thomas_all_dis_v1,3RSDURM96AN3LKKS2PT5WTMKXGQYEC,8,1,1,5,7,30977,9/18/17 14:09,10423
A3MWV912LNFD67,caus_thomas_all_dis_v1,3FIUS151DV31J7VJEEXNPW0S50GGGE,8,0,0,7,2,53599,9/18/17 14:09,10424
A2RR04JS69Z5LE,caus_thomas_all_dis_v1,3Z3ZLGNNSIVR2KD9MVVF0GFL7IK3QO,1,1,1,9,8,6290,9/18/17 14:09,10425
A1I40IZ12GO0G2,caus_thomas_all_dis_v1,34V1S5K3GS2K74J5OVIRLO1G79I96E,8,0,0,2,5,42939,9/18/17 14:09,10426
A29XBKJC7OQ1VQ,caus_thomas_all_dis_v1,35GCEFQ6I5P0GCE09RESR9RPCL4Z3D,8,1,1,5,1,12826,9/18/17 14:09,10427
A110KENBXU7SUJ,caus_thomas_all_dis_v1,3DIP6YHAPCTO6ETAPLVBXGYI41OE8F,6,1,1,2,2,17259,9/18/17 14:09,10428
A16ACBUG1AF169,caus_thomas_all_dis_v1,3U4J9857OECMZXC75P1FI8W2QK5B7P,8,0,0,9,4,40105,9/18/17 14:09,10429
A3B9OZQTE4US3T,caus_thomas_all_dis_v1,3B2X28YI3WG3VXY2MFWNCUW6V9LB6Q,8,1,1,3,3,22067,9/18/17 14:09,10430
AESEZX8S7Z3IC,caus_thomas_all_dis_v1,3AMYWKA6YBNNERNBQK19IEW52846OP,6,2,2,2,2,4471,9/18/17 14:09,10431
A1CH6M8KNYMJ92,caus_thomas_all_dis_v1,38JBBYETQOBNND68DI5YG4ID2FSE48,8,3,3,4,3,6803,9/18/17 14:09,10432
AV581SCZZM1YE,caus_thomas_all_dis_v1,3K2755HG5S4STNPX14QX1QXJRT0DF2,6,3,3,1,3,74230,9/18/17 14:09,10433
A136SBQYT4RFKX,caus_thomas_all_dis_v1,30BUDKLTXDW5JWA8RNO8LWOR2BNE5D,6,1,1,3,4,18677,9/18/17 14:09,10434
AT3NSILK1BP46,caus_thomas_all_dis_v1,3RSDURM96AN3LKKS2PT5WTMKXGQYEC,8,2,2,7,1,9145,9/18/17 14:09,10435
A3B9OZQTE4US3T,caus_thomas_all_dis_v1,3B2X28YI3WG3VXY2MFWNCUW6V9LB6Q,7,2,2,7,10,6143,9/18/17 14:09,10436
A29XBKJC7OQ1VQ,caus_thomas_all_dis_v1,35GCEFQ6I5P0GCE09RESR9RPCL4Z3D,8,2,2,9,9,8137,9/18/17 14:09,10437
A1CH6M8KNYMJ92,caus_thomas_all_dis_v1,38JBBYETQOBNND68DI5YG4ID2FSE48,8,4,4,5,7,4476,9/18/17 14:09,10438
A110KENBXU7SUJ,caus_thomas_all_dis_v1,3DIP6YHAPCTO6ETAPLVBXGYI41OE8F,3,2,2,5,9,8577,9/18/17 14:09,10439
AESEZX8S7Z3IC,caus_thomas_all_dis_v1,3AMYWKA6YBNNERNBQK19IEW52846OP,1,3,3,3,1,7749,9/18/17 14:09,10440
A2PFTBGIF2Q6LJ,caus_thomas_all_dis_v1,3D3VGR7TA0GRELS9ZAKF56PQ34M3RP,7,1,1,9,6,17106,9/18/17 14:09,10441
A2D6VL5XE0O4D3,caus_thomas_all_dis_v1,32SVAV9L3FAZF46SXZYTAG0G30Y3AH,4,0,0,1,4,24045,9/18/17 14:09,10442
A1I40IZ12GO0G2,caus_thomas_all_dis_v1,34V1S5K3GS2K74J5OVIRLO1G79I96E,0,1,1,10,4,14104,9/18/17 14:09,10443
A2RR04JS69Z5LE,caus_thomas_all_dis_v1,3Z3ZLGNNSIVR2KD9MVVF0GFL7IK3QO,2,2,2,3,10,14322,9/18/17 14:09,10444
A3B9OZQTE4US3T,caus_thomas_all_dis_v1,3B2X28YI3WG3VXY2MFWNCUW6V9LB6Q,8,3,3,10,2,6748,9/18/17 14:09,10445
AV581SCZZM1YE,caus_thomas_all_dis_v1,3K2755HG5S4STNPX14QX1QXJRT0DF2,8,4,4,3,8,9094,9/18/17 14:09,10446
A6VQ0UN0ETESM,caus_thomas_all_dis_v1,3EFVCAY5L3AWHUF23M62UWBA99KJ85,8,1,1,5,8,27455,9/18/17 14:09,10447
AESEZX8S7Z3IC,caus_thomas_all_dis_v1,3AMYWKA6YBNNERNBQK19IEW52846OP,2,4,4,4,6,4809,9/18/17 14:09,10448
A29XBKJC7OQ1VQ,caus_thomas_all_dis_v1,35GCEFQ6I5P0GCE09RESR9RPCL4Z3D,8,3,3,8,4,8477,9/18/17 14:09,10449
A16ACBUG1AF169,caus_thomas_all_dis_v1,3U4J9857OECMZXC75P1FI8W2QK5B7P,8,1,1,3,5,17086,9/18/17 14:09,10450
A3MWV912LNFD67,caus_thomas_all_dis_v1,3FIUS151DV31J7VJEEXNPW0S50GGGE,8,1,1,9,4,20218,9/18/17 14:09,10451
A3B9OZQTE4US3T,caus_thomas_all_dis_v1,3B2X28YI3WG3VXY2MFWNCUW6V9LB6Q,6,4,4,1,5,6351,9/18/17 14:10,10452
A2PFTBGIF2Q6LJ,caus_thomas_all_dis_v1,3D3VGR7TA0GRELS9ZAKF56PQ34M3RP,7,2,2,4,4,10835,9/18/17 14:10,10453
A110KENBXU7SUJ,caus_thomas_all_dis_v1,3DIP6YHAPCTO6ETAPLVBXGYI41OE8F,2,3,3,3,6,12533,9/18/17 14:10,10454
A3QC57KUVJP5EW,caus_thomas_all_dis_v1,3BQU611VFPL7PNL3M2L35YSIXAQ99P,3,0,0,5,6,46907,9/18/17 14:10,10455
A2D6VL5XE0O4D3,caus_thomas_all_dis_v1,32SVAV9L3FAZF46SXZYTAG0G30Y3AH,4,1,1,10,7,10630,9/18/17 14:10,10456
A1L3937MY09J3I,caus_thomas_all_dis_v1,3TE22NPXPBD5VB9FOCTL7I6MPQY44S,4,0,0,4,3,23902,9/18/17 14:10,10457
A2RR04JS69Z5LE,caus_thomas_all_dis_v1,3Z3ZLGNNSIVR2KD9MVVF0GFL7IK3QO,6,3,3,5,4,8448,9/18/17 14:10,10458
A29XBKJC7OQ1VQ,caus_thomas_all_dis_v1,35GCEFQ6I5P0GCE09RESR9RPCL4Z3D,8,4,4,2,7,6606,9/18/17 14:10,10459
A1I40IZ12GO0G2,caus_thomas_all_dis_v1,34V1S5K3GS2K74J5OVIRLO1G79I96E,6,2,2,7,8,11472,9/18/17 14:10,10460
A6VQ0UN0ETESM,caus_thomas_all_dis_v1,3EFVCAY5L3AWHUF23M62UWBA99KJ85,8,2,2,8,9,11929,9/18/17 14:10,10461
A3SXW4RPR3NG8A,caus_thomas_all_dis_v1,3DEL4X4EL6MCRKB9XUJXKI7RDM1YXL,1,0,0,2,1,37512,9/18/17 14:10,10462
A16ACBUG1AF169,caus_thomas_all_dis_v1,3U4J9857OECMZXC75P1FI8W2QK5B7P,8,2,2,7,6,9647,9/18/17 14:10,10463
A110KENBXU7SUJ,caus_thomas_all_dis_v1,3DIP6YHAPCTO6ETAPLVBXGYI41OE8F,7,4,4,8,7,7031,9/18/17 14:10,10464
A2RR04JS69Z5LE,caus_thomas_all_dis_v1,3Z3ZLGNNSIVR2KD9MVVF0GFL7IK3QO,4,4,4,8,6,6047,9/18/17 14:10,10465
A2PFTBGIF2Q6LJ,caus_thomas_all_dis_v1,3D3VGR7TA0GRELS9ZAKF56PQ34M3RP,7,3,3,7,9,7799,9/18/17 14:10,10466
A1L3937MY09J3I,caus_thomas_all_dis_v1,3TE22NPXPBD5VB9FOCTL7I6MPQY44S,4,1,1,7,6,7782,9/18/17 14:10,10467
A2D6VL5XE0O4D3,caus_thomas_all_dis_v1,32SVAV9L3FAZF46SXZYTAG0G30Y3AH,4,2,2,9,5,9251,9/18/17 14:10,10468
A3MWV912LNFD67,caus_thomas_all_dis_v1,3FIUS151DV31J7VJEEXNPW0S50GGGE,8,2,2,5,3,15491,9/18/17 14:10,10469
A3QC57KUVJP5EW,caus_thomas_all_dis_v1,3BQU611VFPL7PNL3M2L35YSIXAQ99P,6,1,1,3,8,14269,9/18/17 14:10,10470
A2D6VL5XE0O4D3,caus_thomas_all_dis_v1,32SVAV9L3FAZF46SXZYTAG0G30Y3AH,4,3,3,6,1,4430,9/18/17 14:10,10471
A6VQ0UN0ETESM,caus_thomas_all_dis_v1,3EFVCAY5L3AWHUF23M62UWBA99KJ85,8,3,3,10,10,9728,9/18/17 14:10,10472
A16ACBUG1AF169,caus_thomas_all_dis_v1,3U4J9857OECMZXC75P1FI8W2QK5B7P,8,3,3,10,2,10222,9/18/17 14:10,10473
A2PFTBGIF2Q6LJ,caus_thomas_all_dis_v1,3D3VGR7TA0GRELS9ZAKF56PQ34M3RP,8,4,4,10,1,7984,9/18/17 14:10,10474
A1L3937MY09J3I,caus_thomas_all_dis_v1,3TE22NPXPBD5VB9FOCTL7I6MPQY44S,8,2,2,2,10,7527,9/18/17 14:10,10475
A3PIAHR6PGXZNT,caus_thomas_all_dis_v1,3FUI0JHJPXZZVJ77OKJJN8MAXQ633L,4,0,0,2,5,40912,9/18/17 14:10,10476
A1I40IZ12GO0G2,caus_thomas_all_dis_v1,34V1S5K3GS2K74J5OVIRLO1G79I96E,3,3,3,9,7,14494,9/18/17 14:10,10477
A2D6VL5XE0O4D3,caus_thomas_all_dis_v1,32SVAV9L3FAZF46SXZYTAG0G30Y3AH,4,4,4,3,3,4744,9/18/17 14:10,10478
A12702RT8H45H8,caus_thomas_all_dis_v1,3PXX5PX6LXZ4IZA5CSDZSZYSRSBBAG,8,0,0,9,4,27889,9/18/17 14:10,10479
A6VQ0UN0ETESM,caus_thomas_all_dis_v1,3EFVCAY5L3AWHUF23M62UWBA99KJ85,8,4,4,7,6,7783,9/18/17 14:10,10480
A1L3937MY09J3I,caus_thomas_all_dis_v1,3TE22NPXPBD5VB9FOCTL7I6MPQY44S,2,3,3,8,1,6488,9/18/17 14:10,10481
A3QC57KUVJP5EW,caus_thomas_all_dis_v1,3BQU611VFPL7PNL3M2L35YSIXAQ99P,8,2,2,7,10,9530,9/18/17 14:10,10482
A3SXW4RPR3NG8A,caus_thomas_all_dis_v1,3DEL4X4EL6MCRKB9XUJXKI7RDM1YXL,1,1,1,9,3,19521,9/18/17 14:10,10483
A3MWV912LNFD67,caus_thomas_all_dis_v1,3FIUS151DV31J7VJEEXNPW0S50GGGE,8,3,3,6,7,14994,9/18/17 14:10,10484
A1I40IZ12GO0G2,caus_thomas_all_dis_v1,34V1S5K3GS2K74J5OVIRLO1G79I96E,4,4,4,8,2,8943,9/18/17 14:10,10485
A16ACBUG1AF169,caus_thomas_all_dis_v1,3U4J9857OECMZXC75P1FI8W2QK5B7P,8,4,4,2,7,12023,9/18/17 14:10,10486
AOT6EQEDZ4HYI,caus_thomas_all_dis_v1,3IXEICO792K3RJSJM1N8CO2S1GL6TB,0,0,0,5,10,53831,9/18/17 14:10,10487
A1L3937MY09J3I,caus_thomas_all_dis_v1,3TE22NPXPBD5VB9FOCTL7I6MPQY44S,0,4,4,10,7,5624,9/18/17 14:10,10488
A3PIAHR6PGXZNT,caus_thomas_all_dis_v1,3FUI0JHJPXZZVJ77OKJJN8MAXQ633L,4,1,1,6,6,12057,9/18/17 14:10,10489
A136SBQYT4RFKX,caus_thomas_all_dis_v1,30BUDKLTXDW5JWA8RNO8LWOR2BNE5D,7,2,2,4,3,49688,9/18/17 14:10,10490
A3QC57KUVJP5EW,caus_thomas_all_dis_v1,3BQU611VFPL7PNL3M2L35YSIXAQ99P,4,3,3,4,5,7388,9/18/17 14:10,10491
A12702RT8H45H8,caus_thomas_all_dis_v1,3PXX5PX6LXZ4IZA5CSDZSZYSRSBBAG,8,1,1,10,1,14808,9/18/17 14:10,10492
A3PIAHR6PGXZNT,caus_thomas_all_dis_v1,3FUI0JHJPXZZVJ77OKJJN8MAXQ633L,4,2,2,1,1,5173,9/18/17 14:10,10493
A3SXW4RPR3NG8A,caus_thomas_all_dis_v1,3DEL4X4EL6MCRKB9XUJXKI7RDM1YXL,1,2,2,5,8,11506,9/18/17 14:10,10494
A3N8113KOPLDDM,caus_thomas_all_dis_v1,3VFJCI1K4Z0S8X4XUPRZO0EZ79RGRA,1,0,0,7,10,55570,9/18/17 14:10,10495
AREM7YQQNJ6PL,caus_thomas_all_dis_v1,3EJPLAJKEMHZDV1ISTCQYC39MC6Z6J,8,0,0,2,7,32644,9/18/17 14:10,10496
" A278NFL4DYN322",caus_thomas_all_dis_v1,3JJVG1YBEBY7CTYOHWMIKOI6ZEAB5A,7,0,0,1,1,13548,9/18/17 14:10,10497
A136SBQYT4RFKX,caus_thomas_all_dis_v1,30BUDKLTXDW5JWA8RNO8LWOR2BNE5D,7,3,3,2,7,9610,9/18/17 14:10,10498
A3MWV912LNFD67,caus_thomas_all_dis_v1,3FIUS151DV31J7VJEEXNPW0S50GGGE,8,4,4,3,10,15538,9/18/17 14:10,10499
A3QC57KUVJP5EW,caus_thomas_all_dis_v1,3BQU611VFPL7PNL3M2L35YSIXAQ99P,0,4,4,6,1,9210,9/18/17 14:10,10500
A12702RT8H45H8,caus_thomas_all_dis_v1,3PXX5PX6LXZ4IZA5CSDZSZYSRSBBAG,8,2,2,5,3,8430,9/18/17 14:10,10501
A3SXW4RPR3NG8A,caus_thomas_all_dis_v1,3DEL4X4EL6MCRKB9XUJXKI7RDM1YXL,1,3,3,4,9,8584,9/18/17 14:10,10502
A3PIAHR6PGXZNT,caus_thomas_all_dis_v1,3FUI0JHJPXZZVJ77OKJJN8MAXQ633L,4,3,3,10,3,10846,9/18/17 14:10,10503
A136SBQYT4RFKX,caus_thomas_all_dis_v1,30BUDKLTXDW5JWA8RNO8LWOR2BNE5D,7,4,4,1,10,5876,9/18/17 14:10,10504
" A278NFL4DYN322",caus_thomas_all_dis_v1,3JJVG1YBEBY7CTYOHWMIKOI6ZEAB5A,5,1,1,5,8,11254,9/18/17 14:10,10505
A3N8113KOPLDDM,caus_thomas_all_dis_v1,3VFJCI1K4Z0S8X4XUPRZO0EZ79RGRA,1,1,1,2,3,14775,9/18/17 14:10,10506
A12702RT8H45H8,caus_thomas_all_dis_v1,3PXX5PX6LXZ4IZA5CSDZSZYSRSBBAG,8,3,3,7,9,8385,9/18/17 14:11,10507
AREM7YQQNJ6PL,caus_thomas_all_dis_v1,3EJPLAJKEMHZDV1ISTCQYC39MC6Z6J,8,1,1,5,1,15017,9/18/17 14:11,10508
A3SXW4RPR3NG8A,caus_thomas_all_dis_v1,3DEL4X4EL6MCRKB9XUJXKI7RDM1YXL,1,4,4,6,10,8512,9/18/17 14:11,10509
AOT6EQEDZ4HYI,caus_thomas_all_dis_v1,3IXEICO792K3RJSJM1N8CO2S1GL6TB,0,1,1,4,7,27608,9/18/17 14:11,10510
A3PIAHR6PGXZNT,caus_thomas_all_dis_v1,3FUI0JHJPXZZVJ77OKJJN8MAXQ633L,4,4,4,8,4,8902,9/18/17 14:11,10511
A12702RT8H45H8,caus_thomas_all_dis_v1,3PXX5PX6LXZ4IZA5CSDZSZYSRSBBAG,8,4,4,4,6,4428,9/18/17 14:11,10512
A214PGGAZWG2BV,caus_thomas_all_dis_v1,3KXIR214I4HVSXUSKYAXE39O5C242W,8,0,0,9,8,46438,9/18/17 14:11,10513
AT3NSILK1BP46,caus_thomas_all_dis_v1,3RSDURM96AN3LKKS2PT5WTMKXGQYEC,8,3,3,2,6,81272,9/18/17 14:11,10514
AREM7YQQNJ6PL,caus_thomas_all_dis_v1,3EJPLAJKEMHZDV1ISTCQYC39MC6Z6J,8,2,2,3,4,8260,9/18/17 14:11,10515
A3N8113KOPLDDM,caus_thomas_all_dis_v1,3VFJCI1K4Z0S8X4XUPRZO0EZ79RGRA,1,2,2,5,8,11259,9/18/17 14:11,10516
A13FUEPWBCLBUY,caus_thomas_all_dis_v1,,7,0,0,9,4,35864,9/18/17 14:11,10517
AREM7YQQNJ6PL,caus_thomas_all_dis_v1,3EJPLAJKEMHZDV1ISTCQYC39MC6Z6J,8,3,3,7,6,9355,9/18/17 14:11,10518
AOT6EQEDZ4HYI,caus_thomas_all_dis_v1,3IXEICO792K3RJSJM1N8CO2S1GL6TB,0,2,2,9,2,18166,9/18/17 14:11,10519
A3N8113KOPLDDM,caus_thomas_all_dis_v1,3VFJCI1K4Z0S8X4XUPRZO0EZ79RGRA,1,3,3,1,9,13008,9/18/17 14:11,10520
A14ADQ7RUN6TDY,caus_thomas_all_dis_v1,3KKG4CDWKIZ6SHFR57PCOQH2BIC49O,4,0,0,7,9,28252,9/18/17 14:11,10521
AREM7YQQNJ6PL,caus_thomas_all_dis_v1,3EJPLAJKEMHZDV1ISTCQYC39MC6Z6J,8,4,4,9,5,8141,9/18/17 14:11,10522
" A278NFL4DYN322",caus_thomas_all_dis_v1,3JJVG1YBEBY7CTYOHWMIKOI6ZEAB5A,4,2,2,8,7,33199,9/18/17 14:11,10523
AOT6EQEDZ4HYI,caus_thomas_all_dis_v1,3IXEICO792K3RJSJM1N8CO2S1GL6TB,0,3,3,8,6,9620,9/18/17 14:11,10524
A3N8113KOPLDDM,caus_thomas_all_dis_v1,3VFJCI1K4Z0S8X4XUPRZO0EZ79RGRA,1,4,4,9,6,7184,9/18/17 14:11,10525
A362CV8OOYJA6W,caus_thomas_all_dis_v1,3DR23U6WE5F74YLYSJ66OCU5IE9ET4,5,0,0,9,10,10646,9/18/17 14:11,10526
" A278NFL4DYN322",caus_thomas_all_dis_v1,3JJVG1YBEBY7CTYOHWMIKOI6ZEAB5A,2,3,3,9,4,8222,9/18/17 14:11,10527
A13FUEPWBCLBUY,caus_thomas_all_dis_v1,,3,1,1,3,7,24589,9/18/17 14:11,10528
AOT6EQEDZ4HYI,caus_thomas_all_dis_v1,3IXEICO792K3RJSJM1N8CO2S1GL6TB,0,4,4,1,9,10519,9/18/17 14:11,10529
A362CV8OOYJA6W,caus_thomas_all_dis_v1,3DR23U6WE5F74YLYSJ66OCU5IE9ET4,2,1,1,5,9,6028,9/18/17 14:11,10530
A1G69P73SBVUR4,caus_thomas_all_dis_v1,34MAJL3QP4OKDFQBOYO2XDEGBQ2437,8,0,0,9,5,80023,9/18/17 14:11,10531
AT3NSILK1BP46,caus_thomas_all_dis_v1,3RSDURM96AN3LKKS2PT5WTMKXGQYEC,8,4,4,3,8,36726,9/18/17 14:11,10532
A214PGGAZWG2BV,caus_thomas_all_dis_v1,3KXIR214I4HVSXUSKYAXE39O5C242W,8,1,1,2,9,39084,9/18/17 14:11,10533
" A278NFL4DYN322",caus_thomas_all_dis_v1,3JJVG1YBEBY7CTYOHWMIKOI6ZEAB5A,5,4,4,4,9,8514,9/18/17 14:11,10534
"A2N9AKAOR17XB3",caus_thomas_all_dis_v1,3UXUOQ9OKEYHGN7FZB1JNXCW82K7AQ,3,0,0,4,7,40221,9/18/17 14:11,10535
AUK9BH35CQ4G7,caus_thomas_all_dis_v1,3B2X28YI3WG3VXY2MFWNCUW6V9L6BL,8,0,0,7,9,218236,9/18/17 14:11,10536
A362CV8OOYJA6W,caus_thomas_all_dis_v1,3DR23U6WE5F74YLYSJ66OCU5IE9ET4,0,2,2,1,6,7673,9/18/17 14:11,10537
A214PGGAZWG2BV,caus_thomas_all_dis_v1,3KXIR214I4HVSXUSKYAXE39O5C242W,8,2,2,4,4,13572,9/18/17 14:12,10538
A362CV8OOYJA6W,caus_thomas_all_dis_v1,3DR23U6WE5F74YLYSJ66OCU5IE9ET4,2,3,3,2,5,8976,9/18/17 14:12,10539
A362CV8OOYJA6W,caus_thomas_all_dis_v1,3DR23U6WE5F74YLYSJ66OCU5IE9ET4,2,4,4,6,1,3041,9/18/17 14:12,10540
A1G69P73SBVUR4,caus_thomas_all_dis_v1,34MAJL3QP4OKDFQBOYO2XDEGBQ2437,8,1,1,2,9,22971,9/18/17 14:12,10541
"A2N9AKAOR17XB3",caus_thomas_all_dis_v1,3UXUOQ9OKEYHGN7FZB1JNXCW82K7AQ,6,1,1,3,10,20376,9/18/17 14:12,10542
A36PL5KK0B3XKQ,caus_thomas_all_dis_v1,36DSNE9QZ5ZZ2M2IA3VYRI1AOEOOJD,7,0,0,8,2,39767,9/18/17 14:12,10543
A214PGGAZWG2BV,caus_thomas_all_dis_v1,3KXIR214I4HVSXUSKYAXE39O5C242W,8,3,3,7,7,15366,9/18/17 14:12,10544
A2XUADP5L61HQ5,caus_thomas_all_dis_v1,3JNQLM5FT4NRQ51DQQ9E0KBZRYX2LN,5,0,0,1,1,121074,9/18/17 14:12,10545
A23SGBJULXN5DO,caus_thomas_all_dis_v1,3KYQYYSHYV8MZ02Q079NOK6XJURODZ,5,0,0,6,3,32749,9/18/17 14:12,10546
A14ADQ7RUN6TDY,caus_thomas_all_dis_v1,3KKG4CDWKIZ6SHFR57PCOQH2BIC49O,3,1,1,10,7,53432,9/18/17 14:12,10547
"A2N9AKAOR17XB3",caus_thomas_all_dis_v1,3UXUOQ9OKEYHGN7FZB1JNXCW82K7AQ,7,2,2,8,2,11698,9/18/17 14:12,10548
"A10DGGOQ9N186P",caus_thomas_all_dis_v1,337RC3OW0530NWZFE0TP2P8AOWQLVE,6,0,0,2,7,64820,9/18/17 14:12,10549
A1G69P73SBVUR4,caus_thomas_all_dis_v1,34MAJL3QP4OKDFQBOYO2XDEGBQ2437,8,2,2,5,8,17489,9/18/17 14:12,10550
A23SGBJULXN5DO,caus_thomas_all_dis_v1,3KYQYYSHYV8MZ02Q079NOK6XJURODZ,1,1,1,1,5,6722,9/18/17 14:12,10551
A118Y4ND7AFS2J,caus_thomas_all_dis_v1,3570Y55XZPK15YGJ8KJTWW7WAW6GYC,8,0,0,1,2,87261,9/18/17 14:12,10552
A214PGGAZWG2BV,caus_thomas_all_dis_v1,3KXIR214I4HVSXUSKYAXE39O5C242W,8,4,4,10,1,13305,9/18/17 14:12,10553
A23SGBJULXN5DO,caus_thomas_all_dis_v1,3KYQYYSHYV8MZ02Q079NOK6XJURODZ,5,2,2,4,7,3866,9/18/17 14:12,10554
A14ADQ7RUN6TDY,caus_thomas_all_dis_v1,3KKG4CDWKIZ6SHFR57PCOQH2BIC49O,3,2,2,6,3,10731,9/18/17 14:12,10555
A2XUADP5L61HQ5,caus_thomas_all_dis_v1,3JNQLM5FT4NRQ51DQQ9E0KBZRYX2LN,5,1,1,2,4,13193,9/18/17 14:12,10556
A36PL5KK0B3XKQ,caus_thomas_all_dis_v1,36DSNE9QZ5ZZ2M2IA3VYRI1AOEOOJD,7,1,1,6,4,18845,9/18/17 14:12,10557
A14ADQ7RUN6TDY,caus_thomas_all_dis_v1,3KKG4CDWKIZ6SHFR57PCOQH2BIC49O,3,3,3,1,5,4163,9/18/17 14:12,10558
AUK9BH35CQ4G7,caus_thomas_all_dis_v1,3B2X28YI3WG3VXY2MFWNCUW6V9L6BL,8,1,1,3,3,45633,9/18/17 14:12,10559
A23SGBJULXN5DO,caus_thomas_all_dis_v1,3KYQYYSHYV8MZ02Q079NOK6XJURODZ,8,3,3,9,2,5983,9/18/17 14:12,10560
"A2N9AKAOR17XB3",caus_thomas_all_dis_v1,3UXUOQ9OKEYHGN7FZB1JNXCW82K7AQ,5,3,3,5,8,14137,9/18/17 14:12,10561
A29ERTCD6HF72I,caus_thomas_all_dis_v1,3Z4GS9HPNVBZXL9HS8PZD6A67UE77Z,6,0,0,10,2,103585,9/18/17 14:12,10562
A1G69P73SBVUR4,caus_thomas_all_dis_v1,34MAJL3QP4OKDFQBOYO2XDEGBQ2437,8,3,3,4,6,13664,9/18/17 14:12,10563
A1PMZUBGXFANCI,caus_thomas_all_dis_v1,3R5F3LQFV2LP217MSPYKFCP07C1OZY,5,0,0,5,4,20198,9/18/17 14:12,10564
A2XUADP5L61HQ5,caus_thomas_all_dis_v1,3JNQLM5FT4NRQ51DQQ9E0KBZRYX2LN,5,2,2,9,3,8468,9/18/17 14:12,10565
A23SGBJULXN5DO,caus_thomas_all_dis_v1,3KYQYYSHYV8MZ02Q079NOK6XJURODZ,5,4,4,7,4,3465,9/18/17 14:12,10566
"A1TCRUY62WUUDM",caus_thomas_all_dis_v1,32SCWG5HIH55ZRZC5KEO7E1VCD06P6,8,0,0,1,5,66260,9/18/17 14:12,10567
A118Y4ND7AFS2J,caus_thomas_all_dis_v1,3570Y55XZPK15YGJ8KJTWW7WAW6GYC,8,1,1,2,10,15619,9/18/17 14:12,10568
A14ADQ7RUN6TDY,caus_thomas_all_dis_v1,3KKG4CDWKIZ6SHFR57PCOQH2BIC49O,3,4,4,2,6,5523,9/18/17 14:12,10569
A36PL5KK0B3XKQ,caus_thomas_all_dis_v1,36DSNE9QZ5ZZ2M2IA3VYRI1AOEOOJD,8,2,2,10,8,9014,9/18/17 14:12,10570
 A2M4YIC3XU2693,caus_thomas_all_dis_v1,3TS1AR6UQQFCCEONARNB1YNN5IX7F3,8,0,0,7,9,50634,9/18/17 14:12,10571
A2XUADP5L61HQ5,caus_thomas_all_dis_v1,3JNQLM5FT4NRQ51DQQ9E0KBZRYX2LN,5,3,3,5,6,4034,9/18/17 14:12,10572
"A2N9AKAOR17XB3",caus_thomas_all_dis_v1,3UXUOQ9OKEYHGN7FZB1JNXCW82K7AQ,7,4,4,9,4,8129,9/18/17 14:12,10573
A2P4PPKOHX5UVI,caus_thomas_all_dis_v1,3QIYRE09Y3IAPKM2JZPF8T5J4NJ1N7,4,0,0,5,8,16087,9/18/17 14:12,10574
A1PMZUBGXFANCI,caus_thomas_all_dis_v1,3R5F3LQFV2LP217MSPYKFCP07C1OZY,2,1,1,2,6,8796,9/18/17 14:12,10575
A2XUADP5L61HQ5,caus_thomas_all_dis_v1,3JNQLM5FT4NRQ51DQQ9E0KBZRYX2LN,5,4,4,4,7,6424,9/18/17 14:12,10576
A1G69P73SBVUR4,caus_thomas_all_dis_v1,34MAJL3QP4OKDFQBOYO2XDEGBQ2437,8,4,4,8,4,14017,9/18/17 14:12,10577
A2P4PPKOHX5UVI,caus_thomas_all_dis_v1,3QIYRE09Y3IAPKM2JZPF8T5J4NJ1N7,4,1,1,6,7,7651,9/18/17 14:13,10578
A118Y4ND7AFS2J,caus_thomas_all_dis_v1,3570Y55XZPK15YGJ8KJTWW7WAW6GYC,8,2,2,7,4,13399,9/18/17 14:13,10579
A1PMZUBGXFANCI,caus_thomas_all_dis_v1,3R5F3LQFV2LP217MSPYKFCP07C1OZY,3,2,2,6,8,8082,9/18/17 14:13,10580
A36PL5KK0B3XKQ,caus_thomas_all_dis_v1,36DSNE9QZ5ZZ2M2IA3VYRI1AOEOOJD,4,3,3,5,10,13580,9/18/17 14:13,10581
A2P4PPKOHX5UVI,caus_thomas_all_dis_v1,3QIYRE09Y3IAPKM2JZPF8T5J4NJ1N7,4,2,2,2,2,3541,9/18/17 14:13,10582
A1PMZUBGXFANCI,caus_thomas_all_dis_v1,3R5F3LQFV2LP217MSPYKFCP07C1OZY,5,3,3,8,7,6040,9/18/17 14:13,10583
A118Y4ND7AFS2J,caus_thomas_all_dis_v1,3570Y55XZPK15YGJ8KJTWW7WAW6GYC,8,3,3,6,6,9046,9/18/17 14:13,10584
A2P4PPKOHX5UVI,caus_thomas_all_dis_v1,3QIYRE09Y3IAPKM2JZPF8T5J4NJ1N7,4,3,3,4,9,5566,9/18/17 14:13,10585
A36PL5KK0B3XKQ,caus_thomas_all_dis_v1,36DSNE9QZ5ZZ2M2IA3VYRI1AOEOOJD,2,4,4,4,7,10549,9/18/17 14:13,10586
A2P4PPKOHX5UVI,caus_thomas_all_dis_v1,3QIYRE09Y3IAPKM2JZPF8T5J4NJ1N7,4,4,4,3,3,3084,9/18/17 14:13,10587
AUK9BH35CQ4G7,caus_thomas_all_dis_v1,3B2X28YI3WG3VXY2MFWNCUW6V9L6BL,8,2,2,4,8,35205,9/18/17 14:13,10588
A1PMZUBGXFANCI,caus_thomas_all_dis_v1,3R5F3LQFV2LP217MSPYKFCP07C1OZY,8,4,4,9,5,6722,9/18/17 14:13,10589
A118Y4ND7AFS2J,caus_thomas_all_dis_v1,3570Y55XZPK15YGJ8KJTWW7WAW6GYC,8,4,4,8,3,7844,9/18/17 14:13,10590
"A1TCRUY62WUUDM",caus_thomas_all_dis_v1,32SCWG5HIH55ZRZC5KEO7E1VCD06P6,8,1,1,9,6,34107,9/18/17 14:13,10591
A2NJ7N8INZOB00,caus_thomas_all_dis_v1,35LDD5557A56D3NOF8GX0TCI839MKV,8,0,0,7,5,26964,9/18/17 14:13,10592
"A1TCRUY62WUUDM",caus_thomas_all_dis_v1,32SCWG5HIH55ZRZC5KEO7E1VCD06P6,8,2,2,2,2,16517,9/18/17 14:13,10593
A2ZLJ54OLKRIN3,caus_thomas_all_dis_v1,3GA6AFUKOOPEPRE6358LR2NKGVOH36,8,0,0,10,4,44326,9/18/17 14:13,10594
 A2M4YIC3XU2693,caus_thomas_all_dis_v1,3TS1AR6UQQFCCEONARNB1YNN5IX7F3,0,1,1,1,10,54391,9/18/17 14:13,10595
A2NJ7N8INZOB00,caus_thomas_all_dis_v1,35LDD5557A56D3NOF8GX0TCI839MKV,8,1,1,10,8,13543,9/18/17 14:13,10596
AUK9BH35CQ4G7,caus_thomas_all_dis_v1,3B2X28YI3WG3VXY2MFWNCUW6V9L6BL,8,3,3,8,5,29833,9/18/17 14:13,10597
A1BLQCLUALGX78,caus_thomas_all_dis_v1,3WJEQKOXA83351SDAVKAMNLJ5GKA1W,7,0,0,1,2,69890,9/18/17 14:13,10598
A29ERTCD6HF72I,caus_thomas_all_dis_v1,3Z4GS9HPNVBZXL9HS8PZD6A67UE77Z,5,1,1,1,5,67603,9/18/17 14:13,10599
A2NJ7N8INZOB00,caus_thomas_all_dis_v1,35LDD5557A56D3NOF8GX0TCI839MKV,8,2,2,1,9,7473,9/18/17 14:13,10600
"A1TCRUY62WUUDM",caus_thomas_all_dis_v1,32SCWG5HIH55ZRZC5KEO7E1VCD06P6,8,3,3,10,10,14200,9/18/17 14:13,10601
A2ZLJ54OLKRIN3,caus_thomas_all_dis_v1,3GA6AFUKOOPEPRE6358LR2NKGVOH36,6,1,1,7,5,15496,9/18/17 14:13,10602
A2NG2CCBMVEBIA,caus_thomas_all_dis_v1,3XXU1SWE8MW3YC7VECGA8I290OEA0T,8,0,0,9,6,27022,9/18/17 14:14,10603
"A10DGGOQ9N186P",caus_thomas_all_dis_v1,337RC3OW0530NWZFE0TP2P8AOWQLVE,1,0,0,3,6,20981,9/18/17 14:14,10604
A2NJ7N8INZOB00,caus_thomas_all_dis_v1,35LDD5557A56D3NOF8GX0TCI839MKV,8,3,3,6,6,6370,9/18/17 14:14,10605
A1BLQCLUALGX78,caus_thomas_all_dis_v1,3WJEQKOXA83351SDAVKAMNLJ5GKA1W,7,1,1,6,8,11280,9/18/17 14:14,10606
A5BEH1IONAYMB,caus_thomas_all_dis_v1,3IHR8NYAM72RK4VYMWL9AGHHGMU4PJ,5,0,0,1,2,50705,9/18/17 14:14,10607
A2K2A7R5OSS0QM,caus_thomas_all_dis_v1,351SEKWQS0IYZXHENRUAWGHSOUCMDI,1,0,0,4,9,40406,9/18/17 14:14,10608
AE7CNI1N00155,caus_thomas_all_dis_v1,3JC6VJ2SABK2TJTWBIMMPDY0HWPA5E,8,0,0,2,10,57673,9/18/17 14:14,10609
"A1TCRUY62WUUDM",caus_thomas_all_dis_v1,32SCWG5HIH55ZRZC5KEO7E1VCD06P6,8,4,4,5,1,13225,9/18/17 14:14,10610
A29ERTCD6HF72I,caus_thomas_all_dis_v1,3Z4GS9HPNVBZXL9HS8PZD6A67UE77Z,5,2,2,5,6,16829,9/18/17 14:14,10611
 A2M4YIC3XU2693,caus_thomas_all_dis_v1,3TS1AR6UQQFCCEONARNB1YNN5IX7F3,6,2,2,5,6,23850,9/18/17 14:14,10612
A2ZLJ54OLKRIN3,caus_thomas_all_dis_v1,3GA6AFUKOOPEPRE6358LR2NKGVOH36,0,2,2,1,8,12115,9/18/17 14:14,10613
A2NJ7N8INZOB00,caus_thomas_all_dis_v1,35LDD5557A56D3NOF8GX0TCI839MKV,8,4,4,5,4,10361,9/18/17 14:14,10614
A2NG2CCBMVEBIA,caus_thomas_all_dis_v1,3XXU1SWE8MW3YC7VECGA8I290OEA0T,8,1,1,5,4,12383,9/18/17 14:14,10615
"A10DGGOQ9N186P",caus_thomas_all_dis_v1,337RC3OW0530NWZFE0TP2P8AOWQLVE,7,1,1,5,1,14970,9/18/17 14:14,10616
AUK9BH35CQ4G7,caus_thomas_all_dis_v1,3B2X28YI3WG3VXY2MFWNCUW6V9L6BL,8,4,4,2,4,30906,9/18/17 14:14,10617
A1BLQCLUALGX78,caus_thomas_all_dis_v1,3WJEQKOXA83351SDAVKAMNLJ5GKA1W,4,2,2,10,4,14997,9/18/17 14:14,10618
 A2M4YIC3XU2693,caus_thomas_all_dis_v1,3TS1AR6UQQFCCEONARNB1YNN5IX7F3,7,3,3,8,7,11813,9/18/17 14:14,10619
AE7CNI1N00155,caus_thomas_all_dis_v1,3JC6VJ2SABK2TJTWBIMMPDY0HWPA5E,0,1,1,8,1,16081,9/18/17 14:14,10620
A11EOU75NFP39H,caus_thomas_all_dis_v1,3UXUOQ9OKEYHGN7FZB1JNXCW82KA7T,8,0,0,8,1,67924,9/18/17 14:14,10621
A2NG2CCBMVEBIA,caus_thomas_all_dis_v1,3XXU1SWE8MW3YC7VECGA8I290OEA0T,8,2,2,8,3,9374,9/18/17 14:14,10622
A5BEH1IONAYMB,caus_thomas_all_dis_v1,3IHR8NYAM72RK4VYMWL9AGHHGMU4PJ,5,1,1,5,7,19667,9/18/17 14:14,10623
A2ZLJ54OLKRIN3,caus_thomas_all_dis_v1,3GA6AFUKOOPEPRE6358LR2NKGVOH36,6,3,3,6,1,14389,9/18/17 14:14,10624
A16Q5SHETG2L0G,caus_thomas_all_dis_v1,3L4PIM1GQTHSUOPXOVD5V0L3C5HRYJ,5,0,0,5,7,7640,9/18/17 14:14,10625
A29ERTCD6HF72I,caus_thomas_all_dis_v1,3Z4GS9HPNVBZXL9HS8PZD6A67UE77Z,5,3,3,2,4,18896,9/18/17 14:14,10626
A1BLQCLUALGX78,caus_thomas_all_dis_v1,3WJEQKOXA83351SDAVKAMNLJ5GKA1W,5,3,3,8,9,10165,9/18/17 14:14,10627
A3E4DNVERAYBI4,caus_thomas_all_dis_v1,34T446B1C0FRRR4TYQC1EDSX0RZC0X,8,0,0,6,4,23301,9/18/17 14:14,10628
A3DFL72CC0P7UE,caus_thomas_all_dis_v1,3BWI6RSP7GAK60ORFG35JG2NTHI7EL,8,0,0,1,9,42475,9/18/17 14:14,10629
A20NITCOBY4775,caus_thomas_all_dis_v1,3D4CH1LGEAUM4X8B08RDXFE51NLG9N,8,0,0,9,5,42858,9/18/17 14:14,10630
A16Q5SHETG2L0G,caus_thomas_all_dis_v1,3L4PIM1GQTHSUOPXOVD5V0L3C5HRYJ,4,1,1,7,1,3754,9/18/17 14:14,10631
A2NG2CCBMVEBIA,caus_thomas_all_dis_v1,3XXU1SWE8MW3YC7VECGA8I290OEA0T,7,3,3,7,5,10440,9/18/17 14:14,10632
A16Q5SHETG2L0G,caus_thomas_all_dis_v1,3L4PIM1GQTHSUOPXOVD5V0L3C5HRYJ,5,2,2,8,4,1824,9/18/17 14:14,10633
 A2M4YIC3XU2693,caus_thomas_all_dis_v1,3TS1AR6UQQFCCEONARNB1YNN5IX7F3,0,4,4,10,8,13719,9/18/17 14:14,10634
A1BLQCLUALGX78,caus_thomas_all_dis_v1,3WJEQKOXA83351SDAVKAMNLJ5GKA1W,7,4,4,5,1,7185,9/18/17 14:14,10635
A29ERTCD6HF72I,caus_thomas_all_dis_v1,3Z4GS9HPNVBZXL9HS8PZD6A67UE77Z,5,4,4,4,7,10548,9/18/17 14:14,10636
AE7CNI1N00155,caus_thomas_all_dis_v1,3JC6VJ2SABK2TJTWBIMMPDY0HWPA5E,8,2,2,5,9,18260,9/18/17 14:14,10637
"A10DGGOQ9N186P",caus_thomas_all_dis_v1,337RC3OW0530NWZFE0TP2P8AOWQLVE,7,2,2,9,9,25176,9/18/17 14:14,10638
A5BEH1IONAYMB,caus_thomas_all_dis_v1,3IHR8NYAM72RK4VYMWL9AGHHGMU4PJ,6,2,2,4,4,18467,9/18/17 14:14,10639
A3E4DNVERAYBI4,caus_thomas_all_dis_v1,34T446B1C0FRRR4TYQC1EDSX0RZC0X,8,1,1,3,1,11759,9/18/17 14:14,10640
A2ZLJ54OLKRIN3,caus_thomas_all_dis_v1,3GA6AFUKOOPEPRE6358LR2NKGVOH36,1,4,4,4,10,13446,9/18/17 14:14,10641
A2NG2CCBMVEBIA,caus_thomas_all_dis_v1,3XXU1SWE8MW3YC7VECGA8I290OEA0T,8,4,4,1,8,8216,9/18/17 14:14,10642
A16Q5SHETG2L0G,caus_thomas_all_dis_v1,3L4PIM1GQTHSUOPXOVD5V0L3C5HRYJ,4,3,3,2,6,7961,9/18/17 14:14,10643
A20NITCOBY4775,caus_thomas_all_dis_v1,3D4CH1LGEAUM4X8B08RDXFE51NLG9N,8,1,1,7,8,13177,9/18/17 14:14,10644
A11EOU75NFP39H,caus_thomas_all_dis_v1,3UXUOQ9OKEYHGN7FZB1JNXCW82KA7T,8,1,1,6,3,24086,9/18/17 14:14,10645
A16Q5SHETG2L0G,caus_thomas_all_dis_v1,3L4PIM1GQTHSUOPXOVD5V0L3C5HRYJ,5,4,4,6,9,1618,9/18/17 14:14,10646
A2K2A7R5OSS0QM,caus_thomas_all_dis_v1,351SEKWQS0IYZXHENRUAWGHSOUCMDI,1,1,1,9,8,44002,9/18/17 14:14,10647
A2J9AHXZBB37XU,caus_thomas_all_dis_v1,3K3R2QNK8B459F96KDGU1UFWAV0U91,5,0,0,7,6,34545,9/18/17 14:14,10648
A5BEH1IONAYMB,caus_thomas_all_dis_v1,3IHR8NYAM72RK4VYMWL9AGHHGMU4PJ,6,3,3,8,10,8897,9/18/17 14:14,10649
A2K2A7R5OSS0QM,caus_thomas_all_dis_v1,351SEKWQS0IYZXHENRUAWGHSOUCMDI,1,2,2,7,4,3804,9/18/17 14:14,10650
A3E4DNVERAYBI4,caus_thomas_all_dis_v1,34T446B1C0FRRR4TYQC1EDSX0RZC0X,8,2,2,4,6,10309,9/18/17 14:14,10651
AE7CNI1N00155,caus_thomas_all_dis_v1,3JC6VJ2SABK2TJTWBIMMPDY0HWPA5E,8,3,3,1,2,15738,9/18/17 14:14,10652
A5BEH1IONAYMB,caus_thomas_all_dis_v1,3IHR8NYAM72RK4VYMWL9AGHHGMU4PJ,5,4,4,3,3,4220,9/18/17 14:14,10653
A3E4DNVERAYBI4,caus_thomas_all_dis_v1,34T446B1C0FRRR4TYQC1EDSX0RZC0X,8,3,3,7,8,6490,9/18/17 14:15,10654
A20NITCOBY4775,caus_thomas_all_dis_v1,3D4CH1LGEAUM4X8B08RDXFE51NLG9N,8,2,2,4,7,16860,9/18/17 14:15,10655
"A10DGGOQ9N186P",caus_thomas_all_dis_v1,337RC3OW0530NWZFE0TP2P8AOWQLVE,7,3,3,6,3,20798,9/18/17 14:15,10656
A11EOU75NFP39H,caus_thomas_all_dis_v1,3UXUOQ9OKEYHGN7FZB1JNXCW82KA7T,8,2,2,3,4,16204,9/18/17 14:15,10657
A2XKIP0PJ3FJ20,caus_thomas_all_dis_v1,3D8YOU6S9ELIRW78M6DIHKOUKUSU6Q,0,0,0,5,10,78219,9/18/17 14:15,10658
A3DFL72CC0P7UE,caus_thomas_all_dis_v1,3BWI6RSP7GAK60ORFG35JG2NTHI7EL,8,1,1,8,10,35207,9/18/17 14:15,10659
A24Z9RP5YZZ2TY,caus_thomas_all_dis_v1,30LSNF239UWP04T75NC184J7AU3I2P,8,0,0,2,10,28280,9/18/17 14:15,10660
A3E4DNVERAYBI4,caus_thomas_all_dis_v1,34T446B1C0FRRR4TYQC1EDSX0RZC0X,8,4,4,2,3,6118,9/18/17 14:15,10661
A2J9AHXZBB37XU,caus_thomas_all_dis_v1,3K3R2QNK8B459F96KDGU1UFWAV0U91,7,1,1,2,10,20631,9/18/17 14:15,10662
"A10DGGOQ9N186P",caus_thomas_all_dis_v1,337RC3OW0530NWZFE0TP2P8AOWQLVE,7,4,4,4,7,10866,9/18/17 14:15,10663
"A1TXCO12MCTP8PA1TXCO12MCTP8P",caus_thomas_all_dis_v1,3E4GGUZ1T8SG6ZJV5QXDLKYK2YSK22,5,0,0,7,4,78711,9/18/17 14:15,10664
AYD2LKV6C5F2S,caus_thomas_all_dis_v1,3K2755HG5S4STNPX14QX1QXJRT0FD4,4,0,0,8,4,46352,9/18/17 14:15,10665
A20NITCOBY4775,caus_thomas_all_dis_v1,3D4CH1LGEAUM4X8B08RDXFE51NLG9N,8,3,3,6,2,12894,9/18/17 14:15,10666
A11EOU75NFP39H,caus_thomas_all_dis_v1,3UXUOQ9OKEYHGN7FZB1JNXCW82KA7T,8,3,3,1,10,17270,9/18/17 14:15,10667
A24Z9RP5YZZ2TY,caus_thomas_all_dis_v1,30LSNF239UWP04T75NC184J7AU3I2P,8,1,1,4,7,12653,9/18/17 14:15,10668
A1RPQXFV02P72A,caus_thomas_all_dis_v1,3C44YUNSI1Q4K0ERF7M2DKBNTZNPDH,6,0,0,6,7,43984,9/18/17 14:15,10669
A20NITCOBY4775,caus_thomas_all_dis_v1,3D4CH1LGEAUM4X8B08RDXFE51NLG9N,8,4,4,5,3,6960,9/18/17 14:15,10670
"A2LAE5LO34AK",caus_thomas_all_dis_v1,37QW5D2ZRGNPGXYSQGFGMX2X5SXS8U,8,0,0,5,7,20231,9/18/17 14:15,10671
A2XKIP0PJ3FJ20,caus_thomas_all_dis_v1,3D8YOU6S9ELIRW78M6DIHKOUKUSU6Q,1,1,1,2,2,19600,9/18/17 14:15,10672
A2J9AHXZBB37XU,caus_thomas_all_dis_v1,3K3R2QNK8B459F96KDGU1UFWAV0U91,5,2,2,9,8,14752,9/18/17 14:15,10673
A14ZPUNO6NGWKQ,caus_thomas_all_dis_v1,3KAKFY4PGU3ELMPQ9NQ6REOZG83I30,0,0,0,7,9,73628,9/18/17 14:15,10674
AE7CNI1N00155,caus_thomas_all_dis_v1,3JC6VJ2SABK2TJTWBIMMPDY0HWPA5E,6,4,4,3,7,25085,9/18/17 14:15,10675
A3DFL72CC0P7UE,caus_thomas_all_dis_v1,3BWI6RSP7GAK60ORFG35JG2NTHI7EL,8,2,2,4,5,21485,9/18/17 14:15,10676
A2K2A7R5OSS0QM,caus_thomas_all_dis_v1,351SEKWQS0IYZXHENRUAWGHSOUCMDI,1,3,3,2,1,37027,9/18/17 14:15,10677
"A2LAE5LO34AK",caus_thomas_all_dis_v1,37QW5D2ZRGNPGXYSQGFGMX2X5SXS8U,8,1,1,3,9,7918,9/18/17 14:15,10678
A24Z9RP5YZZ2TY,caus_thomas_all_dis_v1,30LSNF239UWP04T75NC184J7AU3I2P,8,2,2,3,1,12832,9/18/17 14:15,10679
A11EOU75NFP39H,caus_thomas_all_dis_v1,3UXUOQ9OKEYHGN7FZB1JNXCW82KA7T,8,4,4,10,6,13173,9/18/17 14:15,10680
A1RPQXFV02P72A,caus_thomas_all_dis_v1,3C44YUNSI1Q4K0ERF7M2DKBNTZNPDH,1,1,1,9,4,12894,9/18/17 14:15,10681
"A2LAE5LO34AK",caus_thomas_all_dis_v1,37QW5D2ZRGNPGXYSQGFGMX2X5SXS8U,8,2,2,1,10,3558,9/18/17 14:15,10682
A2J9AHXZBB37XU,caus_thomas_all_dis_v1,3K3R2QNK8B459F96KDGU1UFWAV0U91,3,3,3,6,9,10998,9/18/17 14:15,10683
AYD2LKV6C5F2S,caus_thomas_all_dis_v1,3K2755HG5S4STNPX14QX1QXJRT0FD4,6,1,1,9,2,22100,9/18/17 14:15,10684
AK3O7HRDMEI5J,caus_thomas_all_dis_v1,3VZLGYJEYLBCWALETGLGYPGTJG6ZXE,7,0,0,4,1,31277,9/18/17 14:15,10685
A3AV8KOZW78IEW,caus_thomas_all_dis_v1,3AMW0RGHOD3D6C5441059PNH73PPNZ,1,0,0,10,4,39547,9/18/17 14:15,10686
A2XKIP0PJ3FJ20,caus_thomas_all_dis_v1,3D8YOU6S9ELIRW78M6DIHKOUKUSU6Q,5,2,2,9,3,16332,9/18/17 14:15,10687
"A1TXCO12MCTP8PA1TXCO12MCTP8P",caus_thomas_all_dis_v1,3E4GGUZ1T8SG6ZJV5QXDLKYK2YSK22,7,1,1,8,1,25904,9/18/17 14:15,10688
A3DFL72CC0P7UE,caus_thomas_all_dis_v1,3BWI6RSP7GAK60ORFG35JG2NTHI7EL,8,3,3,5,4,13378,9/18/17 14:15,10689
"A2LAE5LO34AK",caus_thomas_all_dis_v1,37QW5D2ZRGNPGXYSQGFGMX2X5SXS8U,8,3,3,6,5,4668,9/18/17 14:15,10690
AYD2LKV6C5F2S,caus_thomas_all_dis_v1,3K2755HG5S4STNPX14QX1QXJRT0FD4,4,2,2,2,1,6065,9/18/17 14:15,10691
"A2LAE5LO34AK",caus_thomas_all_dis_v1,37QW5D2ZRGNPGXYSQGFGMX2X5SXS8U,8,4,4,10,4,2423,9/18/17 14:15,10692
A2J9AHXZBB37XU,caus_thomas_all_dis_v1,3K3R2QNK8B459F96KDGU1UFWAV0U91,0,4,4,10,4,9278,9/18/17 14:15,10693
A2KDZ4HNHX85OR,caus_thomas_all_dis_v1,3EFE17QCRC6I98ZLTK9MZAVW8BNSH9,4,0,0,5,6,4704,9/18/17 14:15,10694
A24Z9RP5YZZ2TY,caus_thomas_all_dis_v1,30LSNF239UWP04T75NC184J7AU3I2P,8,3,3,6,4,13028,9/18/17 14:15,10695
A1YSYI926BBOHW,caus_thomas_all_dis_v1,3DQQ64TANGM3T6EIW2RS58080FTWPX,8,0,0,7,7,30189,9/18/17 14:15,10696
A2XKIP0PJ3FJ20,caus_thomas_all_dis_v1,3D8YOU6S9ELIRW78M6DIHKOUKUSU6Q,8,3,3,10,1,9005,9/18/17 14:15,10697
A2KDZ4HNHX85OR,caus_thomas_all_dis_v1,3EFE17QCRC6I98ZLTK9MZAVW8BNSH9,5,1,1,9,2,2191,9/18/17 14:15,10698
AYD2LKV6C5F2S,caus_thomas_all_dis_v1,3K2755HG5S4STNPX14QX1QXJRT0FD4,5,3,3,6,7,6814,9/18/17 14:15,10699
AK3O7HRDMEI5J,caus_thomas_all_dis_v1,3VZLGYJEYLBCWALETGLGYPGTJG6ZXE,7,1,1,7,5,12965,9/18/17 14:15,10700
A24Z9RP5YZZ2TY,caus_thomas_all_dis_v1,30LSNF239UWP04T75NC184J7AU3I2P,8,4,4,10,8,5116,9/18/17 14:15,10701
A2KDZ4HNHX85OR,caus_thomas_all_dis_v1,3EFE17QCRC6I98ZLTK9MZAVW8BNSH9,6,2,2,7,7,2442,9/18/17 14:15,10702
A2K2A7R5OSS0QM,caus_thomas_all_dis_v1,351SEKWQS0IYZXHENRUAWGHSOUCMDI,1,4,4,3,7,24982,9/18/17 14:16,10703
A14ZPUNO6NGWKQ,caus_thomas_all_dis_v1,3KAKFY4PGU3ELMPQ9NQ6REOZG83I30,2,1,1,1,3,30597,9/18/17 14:16,10704
A2KDZ4HNHX85OR,caus_thomas_all_dis_v1,3EFE17QCRC6I98ZLTK9MZAVW8BNSH9,2,3,3,8,10,1599,9/18/17 14:16,10705
AYD2LKV6C5F2S,caus_thomas_all_dis_v1,3K2755HG5S4STNPX14QX1QXJRT0FD4,5,4,4,4,6,4639,9/18/17 14:16,10706
AK3O7HRDMEI5J,caus_thomas_all_dis_v1,3VZLGYJEYLBCWALETGLGYPGTJG6ZXE,7,2,2,5,2,4073,9/18/17 14:16,10707
A2XKIP0PJ3FJ20,caus_thomas_all_dis_v1,3D8YOU6S9ELIRW78M6DIHKOUKUSU6Q,2,4,4,4,4,8220,9/18/17 14:16,10708
A2KDZ4HNHX85OR,caus_thomas_all_dis_v1,3EFE17QCRC6I98ZLTK9MZAVW8BNSH9,4,4,4,4,9,1725,9/18/17 14:16,10709
A3DFL72CC0P7UE,caus_thomas_all_dis_v1,3BWI6RSP7GAK60ORFG35JG2NTHI7EL,8,4,4,6,6,19066,9/18/17 14:16,10710
AZOF6QSSWG98H,caus_thomas_all_dis_v1,3NS0A6KXC491AOQO46LCA3GYGQAZGM,8,0,0,10,7,40557,9/18/17 14:16,10711
"A1TXCO12MCTP8PA1TXCO12MCTP8P",caus_thomas_all_dis_v1,3E4GGUZ1T8SG6ZJV5QXDLKYK2YSK22,6,2,2,9,6,24298,9/18/17 14:16,10712
A2DDXYTEVDV5F5,caus_thomas_all_dis_v1,3UJ1CZ6IZHQ6TFFQSI8DADS632WS5S,8,0,0,10,8,46392,9/18/17 14:16,10713
A3AV8KOZW78IEW,caus_thomas_all_dis_v1,3AMW0RGHOD3D6C5441059PNH73PPNZ,2,1,1,6,5,25862,9/18/17 14:16,10714
AK3O7HRDMEI5J,caus_thomas_all_dis_v1,3VZLGYJEYLBCWALETGLGYPGTJG6ZXE,7,3,3,3,7,9756,9/18/17 14:16,10715
A1RPQXFV02P72A,caus_thomas_all_dis_v1,3C44YUNSI1Q4K0ERF7M2DKBNTZNPDH,8,2,2,5,8,33426,9/18/17 14:16,10716
A14ZPUNO6NGWKQ,caus_thomas_all_dis_v1,3KAKFY4PGU3ELMPQ9NQ6REOZG83I30,2,2,2,5,4,13028,9/18/17 14:16,10717
A1YSYI926BBOHW,caus_thomas_all_dis_v1,3DQQ64TANGM3T6EIW2RS58080FTWPX,8,1,1,10,8,22459,9/18/17 14:16,10718
AK3O7HRDMEI5J,caus_thomas_all_dis_v1,3VZLGYJEYLBCWALETGLGYPGTJG6ZXE,7,4,4,6,6,3990,9/18/17 14:16,10719
A3AV8KOZW78IEW,caus_thomas_all_dis_v1,3AMW0RGHOD3D6C5441059PNH73PPNZ,4,2,2,7,3,9018,9/18/17 14:16,10720
"A1TXCO12MCTP8PA1TXCO12MCTP8P",caus_thomas_all_dis_v1,3E4GGUZ1T8SG6ZJV5QXDLKYK2YSK22,3,3,3,5,8,13127,9/18/17 14:16,10721
A1YSYI926BBOHW,caus_thomas_all_dis_v1,3DQQ64TANGM3T6EIW2RS58080FTWPX,8,2,2,9,9,10550,9/18/17 14:16,10722
AGVR7IGGPLN8J,caus_thomas_all_dis_v1,3U5JL4WY5KAWTDXP8NVQ4T3KIL44X8,0,0,0,9,3,22864,9/18/17 14:16,10723
A3AV8KOZW78IEW,caus_thomas_all_dis_v1,3AMW0RGHOD3D6C5441059PNH73PPNZ,4,3,3,1,10,6373,9/18/17 14:16,10724
A2Q3FS9G8ITCN7,caus_thomas_all_dis_v1,3LO69W1SU3EH5Z9KP5U32O501H2GLK,4,0,0,1,8,50089,9/18/17 14:16,10725
A1RPQXFV02P72A,caus_thomas_all_dis_v1,3C44YUNSI1Q4K0ERF7M2DKBNTZNPDH,3,3,3,3,1,14789,9/18/17 14:16,10726
A14ZPUNO6NGWKQ,caus_thomas_all_dis_v1,3KAKFY4PGU3ELMPQ9NQ6REOZG83I30,2,3,3,9,10,15516,9/18/17 14:16,10727
A3AV8KOZW78IEW,caus_thomas_all_dis_v1,3AMW0RGHOD3D6C5441059PNH73PPNZ,4,4,4,3,1,4660,9/18/17 14:16,10728
A2DDXYTEVDV5F5,caus_thomas_all_dis_v1,3UJ1CZ6IZHQ6TFFQSI8DADS632WS5S,0,1,1,1,5,22714,9/18/17 14:16,10729
"A1TXCO12MCTP8PA1TXCO12MCTP8P",caus_thomas_all_dis_v1,3E4GGUZ1T8SG6ZJV5QXDLKYK2YSK22,8,4,4,10,9,9899,9/18/17 14:16,10730
AZOF6QSSWG98H,caus_thomas_all_dis_v1,3NS0A6KXC491AOQO46LCA3GYGQAZGM,8,1,1,7,1,28298,9/18/17 14:16,10731
A1RPQXFV02P72A,caus_thomas_all_dis_v1,3C44YUNSI1Q4K0ERF7M2DKBNTZNPDH,1,4,4,8,6,7800,9/18/17 14:16,10732
A1YSYI926BBOHW,caus_thomas_all_dis_v1,3DQQ64TANGM3T6EIW2RS58080FTWPX,8,3,3,2,6,11126,9/18/17 14:16,10733
A2Q3FS9G8ITCN7,caus_thomas_all_dis_v1,3LO69W1SU3EH5Z9KP5U32O501H2GLK,4,1,1,5,2,15421,9/18/17 14:16,10734
A14ZPUNO6NGWKQ,caus_thomas_all_dis_v1,3KAKFY4PGU3ELMPQ9NQ6REOZG83I30,2,4,4,2,7,12924,9/18/17 14:16,10735
A3A8P4UR9A0DWQ,caus_thomas_all_dis_v1,3LPW2N6LKT3M8S7UHN3DPEAUOZH5UL,8,0,0,8,1,39105,9/18/17 14:16,10736
A2DDXYTEVDV5F5,caus_thomas_all_dis_v1,3UJ1CZ6IZHQ6TFFQSI8DADS632WS5S,0,2,2,3,4,10825,9/18/17 14:16,10737
A1YSYI926BBOHW,caus_thomas_all_dis_v1,3DQQ64TANGM3T6EIW2RS58080FTWPX,8,4,4,6,5,9486,9/18/17 14:16,10738
AZOF6QSSWG98H,caus_thomas_all_dis_v1,3NS0A6KXC491AOQO46LCA3GYGQAZGM,8,2,2,4,6,12199,9/18/17 14:16,10739
AGVR7IGGPLN8J,caus_thomas_all_dis_v1,3U5JL4WY5KAWTDXP8NVQ4T3KIL44X8,7,1,1,8,7,23538,9/18/17 14:16,10740
A1KXYURHCYHKOL,caus_thomas_all_dis_v1,3QFUFYSY9YGFTR648TP4YM3DEG7F4R,8,0,0,2,7,52155,9/18/17 14:16,10741
A3A8P4UR9A0DWQ,caus_thomas_all_dis_v1,3LPW2N6LKT3M8S7UHN3DPEAUOZH5UL,0,1,1,4,9,14716,9/18/17 14:17,10742
A3I3VC7VCQHOT8,caus_thomas_all_dis_v1,3RJSC4XJ10V6S6VEJGPT07MN8AE05E,4,0,0,8,6,47449,9/18/17 14:17,10743
A3RX72PACI0RG4,caus_thomas_all_dis_v1,3BWI6RSP7GAK60ORFG35JG2NTHIE7S,7,0,0,7,6,24800,9/18/17 14:17,10744
A2DDXYTEVDV5F5,caus_thomas_all_dis_v1,3UJ1CZ6IZHQ6TFFQSI8DADS632WS5S,6,3,3,7,2,14799,9/18/17 14:17,10745
AZOF6QSSWG98H,caus_thomas_all_dis_v1,3NS0A6KXC491AOQO46LCA3GYGQAZGM,8,3,3,9,4,13419,9/18/17 14:17,10746
A3V8K9BG9DSC11,caus_thomas_all_dis_v1,3UWN2HHPUY6AJ4LWWI4Z4USSUNWNSD,4,0,0,4,9,49887,9/18/17 14:17,10747
A1KXYURHCYHKOL,caus_thomas_all_dis_v1,3QFUFYSY9YGFTR648TP4YM3DEG7F4R,8,1,1,6,5,15392,9/18/17 14:17,10748
AGVR7IGGPLN8J,caus_thomas_all_dis_v1,3U5JL4WY5KAWTDXP8NVQ4T3KIL44X8,6,2,2,6,8,18750,9/18/17 14:17,10749
"A1SG071MSEZYM4A1SG071MSEZYM4A1SG071MSEZYM4A1SGA1SG071MSEZYM4A1SG071MSEZYM4",caus_thomas_all_dis_v1,3YWRV122CS05VAQWFLAG1YKLQPI8UQ,4,0,0,6,1,182902,9/18/17 14:17,10750
A2DDXYTEVDV5F5,caus_thomas_all_dis_v1,3UJ1CZ6IZHQ6TFFQSI8DADS632WS5S,0,4,4,4,9,11500,9/18/17 14:17,10751
AZOF6QSSWG98H,caus_thomas_all_dis_v1,3NS0A6KXC491AOQO46LCA3GYGQAZGM,8,4,4,2,10,10152,9/18/17 14:17,10752
A3FHFGC3V9B3OJ,caus_thomas_all_dis_v1,3L0KT67Y8EH4V3PA3KDALAQZY70SY8,7,0,0,6,1,38250,9/18/17 14:17,10753
A3A8P4UR9A0DWQ,caus_thomas_all_dis_v1,3LPW2N6LKT3M8S7UHN3DPEAUOZH5UL,0,2,2,10,8,16346,9/18/17 14:17,10754
AGVR7IGGPLN8J,caus_thomas_all_dis_v1,3U5JL4WY5KAWTDXP8NVQ4T3KIL44X8,6,3,3,3,6,8456,9/18/17 14:17,10755
A3RX72PACI0RG4,caus_thomas_all_dis_v1,3BWI6RSP7GAK60ORFG35JG2NTHIE7S,0,1,1,3,7,19831,9/18/17 14:17,10756
A3I3VC7VCQHOT8,caus_thomas_all_dis_v1,3RJSC4XJ10V6S6VEJGPT07MN8AE05E,4,1,1,4,2,21113,9/18/17 14:17,10757
A3V8K9BG9DSC11,caus_thomas_all_dis_v1,3UWN2HHPUY6AJ4LWWI4Z4USSUNWNSD,8,1,1,10,6,17101,9/18/17 14:17,10758
A2U7BMG19Q83GE,caus_thomas_all_dis_v1,3JNQLM5FT4NRQ51DQQ9E0KBZRYY2LO,4,0,0,10,5,3625,9/18/17 14:17,10759
A1KXYURHCYHKOL,caus_thomas_all_dis_v1,3QFUFYSY9YGFTR648TP4YM3DEG7F4R,8,2,2,9,8,17309,9/18/17 14:17,10760
AGVR7IGGPLN8J,caus_thomas_all_dis_v1,3U5JL4WY5KAWTDXP8NVQ4T3KIL44X8,8,4,4,10,5,6368,9/18/17 14:17,10761
A3FHFGC3V9B3OJ,caus_thomas_all_dis_v1,3L0KT67Y8EH4V3PA3KDALAQZY70SY8,7,1,1,10,5,10762,9/18/17 14:17,10762
A3A8P4UR9A0DWQ,caus_thomas_all_dis_v1,3LPW2N6LKT3M8S7UHN3DPEAUOZH5UL,3,3,3,3,2,10264,9/18/17 14:17,10763
A2U7BMG19Q83GE,caus_thomas_all_dis_v1,3JNQLM5FT4NRQ51DQQ9E0KBZRYY2LO,3,1,1,3,9,3561,9/18/17 14:17,10764
A2Q3FS9G8ITCN7,caus_thomas_all_dis_v1,3LO69W1SU3EH5Z9KP5U32O501H2GLK,4,2,2,6,6,44506,9/18/17 14:17,10765
A17V85U8PXS4LJ,caus_thomas_all_dis_v1,3BF51CHDTVBI8ZF9KIQ2P4PDDJ50HV,7,0,0,8,6,26763,9/18/17 14:17,10766
A3RX72PACI0RG4,caus_thomas_all_dis_v1,3BWI6RSP7GAK60ORFG35JG2NTHIE7S,0,2,2,4,9,11566,9/18/17 14:17,10767
A3V8K9BG9DSC11,caus_thomas_all_dis_v1,3UWN2HHPUY6AJ4LWWI4Z4USSUNWNSD,6,2,2,6,1,11095,9/18/17 14:17,10768
A2U7BMG19Q83GE,caus_thomas_all_dis_v1,3JNQLM5FT4NRQ51DQQ9E0KBZRYY2LO,3,2,2,7,1,5680,9/18/17 14:17,10769
A1LHBNE9I1QFGD,caus_thomas_all_dis_v1,30LSNF239UWP04T75NC184J7AU42IA,8,0,0,10,8,65726,9/18/17 14:17,10770
A3I3VC7VCQHOT8,caus_thomas_all_dis_v1,3RJSC4XJ10V6S6VEJGPT07MN8AE05E,4,2,2,10,10,14875,9/18/17 14:17,10771
A3A8P4UR9A0DWQ,caus_thomas_all_dis_v1,3LPW2N6LKT3M8S7UHN3DPEAUOZH5UL,8,4,4,9,7,9097,9/18/17 14:17,10772
A1KXYURHCYHKOL,caus_thomas_all_dis_v1,3QFUFYSY9YGFTR648TP4YM3DEG7F4R,8,3,3,1,4,11562,9/18/17 14:17,10773
A3I2OO72NTHLAL,caus_thomas_all_dis_v1,3X4JMASXCMA8HMCNKQG63TMFI600BF,8,0,0,10,8,37288,9/18/17 14:17,10774
A3FHFGC3V9B3OJ,caus_thomas_all_dis_v1,3L0KT67Y8EH4V3PA3KDALAQZY70SY8,7,2,2,3,4,10443,9/18/17 14:17,10775
A2Q3FS9G8ITCN7,caus_thomas_all_dis_v1,3LO69W1SU3EH5Z9KP5U32O501H2GLK,4,3,3,8,7,8870,9/18/17 14:17,10776
A2U7BMG19Q83GE,caus_thomas_all_dis_v1,3JNQLM5FT4NRQ51DQQ9E0KBZRYY2LO,4,3,3,1,4,3654,9/18/17 14:17,10777
A2D3TXA2QAVPXW,caus_thomas_all_dis_v1,3WLEIWSYHOIP49INZ5UG8SISAHP2HH,5,0,0,4,8,29931,9/18/17 14:17,10778
A2U7BMG19Q83GE,caus_thomas_all_dis_v1,3JNQLM5FT4NRQ51DQQ9E0KBZRYY2LO,4,4,4,2,10,1630,9/18/17 14:17,10779
A3RX72PACI0RG4,caus_thomas_all_dis_v1,3BWI6RSP7GAK60ORFG35JG2NTHIE7S,0,3,3,1,8,9147,9/18/17 14:17,10780
A17V85U8PXS4LJ,caus_thomas_all_dis_v1,3BF51CHDTVBI8ZF9KIQ2P4PDDJ50HV,7,1,1,4,3,12338,9/18/17 14:17,10781
A3V8K9BG9DSC11,caus_thomas_all_dis_v1,3UWN2HHPUY6AJ4LWWI4Z4USSUNWNSD,6,3,3,8,5,11126,9/18/17 14:17,10782
A3I3VC7VCQHOT8,caus_thomas_all_dis_v1,3RJSC4XJ10V6S6VEJGPT07MN8AE05E,4,3,3,6,8,8907,9/18/17 14:17,10783
A2Q3FS9G8ITCN7,caus_thomas_all_dis_v1,3LO69W1SU3EH5Z9KP5U32O501H2GLK,4,4,4,10,9,8299,9/18/17 14:17,10784
A1KXYURHCYHKOL,caus_thomas_all_dis_v1,3QFUFYSY9YGFTR648TP4YM3DEG7F4R,8,4,4,5,9,9492,9/18/17 14:17,10785
A3FHFGC3V9B3OJ,caus_thomas_all_dis_v1,3L0KT67Y8EH4V3PA3KDALAQZY70SY8,7,3,3,9,8,9400,9/18/17 14:17,10786
A17V85U8PXS4LJ,caus_thomas_all_dis_v1,3BF51CHDTVBI8ZF9KIQ2P4PDDJ50HV,7,2,2,10,2,7228,9/18/17 14:17,10787
A3RX72PACI0RG4,caus_thomas_all_dis_v1,3BWI6RSP7GAK60ORFG35JG2NTHIE7S,0,4,4,2,10,8110,9/18/17 14:17,10788
A3FHFGC3V9B3OJ,caus_thomas_all_dis_v1,3L0KT67Y8EH4V3PA3KDALAQZY70SY8,7,4,4,5,10,5673,9/18/17 14:17,10789
A3I3VC7VCQHOT8,caus_thomas_all_dis_v1,3RJSC4XJ10V6S6VEJGPT07MN8AE05E,4,4,4,3,3,7357,9/18/17 14:17,10790
A3V8K9BG9DSC11,caus_thomas_all_dis_v1,3UWN2HHPUY6AJ4LWWI4Z4USSUNWNSD,7,4,4,9,3,10018,9/18/17 14:17,10791
AJWES6SFIP3AT,caus_thomas_all_dis_v1,3WT783CTPBISBE73W69QYUOGRVWBCI,8,0,0,1,5,79286,9/18/17 14:18,10792
A2D3TXA2QAVPXW,caus_thomas_all_dis_v1,3WLEIWSYHOIP49INZ5UG8SISAHP2HH,1,1,1,6,7,17045,9/18/17 14:18,10793
A3I2OO72NTHLAL,caus_thomas_all_dis_v1,3X4JMASXCMA8HMCNKQG63TMFI600BF,8,1,1,6,5,21330,9/18/17 14:18,10794
A1LHBNE9I1QFGD,caus_thomas_all_dis_v1,30LSNF239UWP04T75NC184J7AU42IA,8,1,1,6,1,23453,9/18/17 14:18,10795
A17V85U8PXS4LJ,caus_thomas_all_dis_v1,3BF51CHDTVBI8ZF9KIQ2P4PDDJ50HV,-1,3,3,7,8,9085,9/18/17 14:18,10796
AUOYNTK0GOFOM,caus_thomas_all_dis_v1,33L7PJKHCGZQVXB7FGK6W2YJ7BBT8K,8,0,0,6,9,46008,9/18/17 14:18,10797
A17V85U8PXS4LJ,caus_thomas_all_dis_v1,3BF51CHDTVBI8ZF9KIQ2P4PDDJ50HV,7,4,4,2,4,6956,9/18/17 14:18,10798
A3I2OO72NTHLAL,caus_thomas_all_dis_v1,3X4JMASXCMA8HMCNKQG63TMFI600BF,8,2,2,1,9,9060,9/18/17 14:18,10799
A2D3TXA2QAVPXW,caus_thomas_all_dis_v1,3WLEIWSYHOIP49INZ5UG8SISAHP2HH,1,2,2,7,10,15946,9/18/17 14:18,10800
A2SBN6V55I5K4I,caus_thomas_all_dis_v1,3R08VXYT7CWEN0AI0GXB5M9N0LO7W2,7,0,0,3,1,31840,9/18/17 14:18,10801
A1LHBNE9I1QFGD,caus_thomas_all_dis_v1,30LSNF239UWP04T75NC184J7AU42IA,8,2,2,5,6,18964,9/18/17 14:18,10802
AJWES6SFIP3AT,caus_thomas_all_dis_v1,3WT783CTPBISBE73W69QYUOGRVWBCI,4,1,1,5,6,24899,9/18/17 14:18,10803
A3I2OO72NTHLAL,caus_thomas_all_dis_v1,3X4JMASXCMA8HMCNKQG63TMFI600BF,8,3,3,5,2,12739,9/18/17 14:18,10804
AUOYNTK0GOFOM,caus_thomas_all_dis_v1,33L7PJKHCGZQVXB7FGK6W2YJ7BBT8K,8,1,1,2,4,16613,9/18/17 14:18,10805
A1AO1LLP3INAZF,caus_thomas_all_dis_v1,3HYA4D452RK5QDRH4F6G576FU2B2FI,6,0,0,8,6,27469,9/18/17 14:18,10806
"A1SG071MSEZYM4A1SG071MSEZYM4A1SG071MSEZYM4A1SGA1SG071MSEZYM4A1SG071MSEZYM4",caus_thomas_all_dis_v1,3YWRV122CS05VAQWFLAG1YKLQPI8UQ,4,1,1,3,8,74986,9/18/17 14:18,10807
A2D3TXA2QAVPXW,caus_thomas_all_dis_v1,3WLEIWSYHOIP49INZ5UG8SISAHP2HH,1,3,3,10,5,12043,9/18/17 14:18,10808
A1LHBNE9I1QFGD,caus_thomas_all_dis_v1,30LSNF239UWP04T75NC184J7AU42IA,8,3,3,7,5,12261,9/18/17 14:18,10809
AJWES6SFIP3AT,caus_thomas_all_dis_v1,3WT783CTPBISBE73W69QYUOGRVWBCI,6,2,2,7,8,9577,9/18/17 14:18,10810
AUOYNTK0GOFOM,caus_thomas_all_dis_v1,33L7PJKHCGZQVXB7FGK6W2YJ7BBT8K,8,2,2,7,3,7814,9/18/17 14:18,10811
A38KA8KXRLEM7M,caus_thomas_all_dis_v1,31HQ4X3T3SBKV4IBK5OKR2O3PSWLS9,7,0,0,3,9,62418,9/18/17 14:18,10812
AKG7VBOY97HKA,caus_thomas_all_dis_v1,31Z0PCVWUKGMVJ6O5BS0I22OWR67TC,8,0,0,3,8,42018,9/18/17 14:18,10813
A5OJ7FHDAEHR9,caus_thomas_all_dis_v1,3OUYGIZWR7ZALGDX3VY7YDR4ZAF0P0,4,0,0,6,10,43200,9/18/17 14:18,10814
A1AO1LLP3INAZF,caus_thomas_all_dis_v1,3HYA4D452RK5QDRH4F6G576FU2B2FI,1,1,1,3,5,13679,9/18/17 14:18,10815
A2D3TXA2QAVPXW,caus_thomas_all_dis_v1,3WLEIWSYHOIP49INZ5UG8SISAHP2HH,1,4,4,5,9,9881,9/18/17 14:18,10816
A3I2OO72NTHLAL,caus_thomas_all_dis_v1,3X4JMASXCMA8HMCNKQG63TMFI600BF,8,4,4,9,4,19020,9/18/17 14:18,10817
AJWES6SFIP3AT,caus_thomas_all_dis_v1,3WT783CTPBISBE73W69QYUOGRVWBCI,1,3,3,10,1,9862,9/18/17 14:18,10818
A2SBN6V55I5K4I,caus_thomas_all_dis_v1,3R08VXYT7CWEN0AI0GXB5M9N0LO7W2,7,1,1,8,8,27075,9/18/17 14:18,10819
AUOYNTK0GOFOM,caus_thomas_all_dis_v1,33L7PJKHCGZQVXB7FGK6W2YJ7BBT8K,8,3,3,8,1,10740,9/18/17 14:18,10820
A3TQD8CNO16IZK,caus_thomas_all_dis_v1,3P59JYT76LLF9I9IZZB5MBLGLBJ2TQ,8,0,0,8,5,19829,9/18/17 14:18,10821
A1LHBNE9I1QFGD,caus_thomas_all_dis_v1,30LSNF239UWP04T75NC184J7AU42IA,8,4,4,4,4,14780,9/18/17 14:18,10822
A5OJ7FHDAEHR9,caus_thomas_all_dis_v1,3OUYGIZWR7ZALGDX3VY7YDR4ZAF0P0,4,1,1,5,4,11809,9/18/17 14:18,10823
AJWES6SFIP3AT,caus_thomas_all_dis_v1,3WT783CTPBISBE73W69QYUOGRVWBCI,6,4,4,2,7,9418,9/18/17 14:18,10824
A5OJ7FHDAEHR9,caus_thomas_all_dis_v1,3OUYGIZWR7ZALGDX3VY7YDR4ZAF0P0,4,2,2,4,1,6534,9/18/17 14:19,10825
A38KA8KXRLEM7M,caus_thomas_all_dis_v1,31HQ4X3T3SBKV4IBK5OKR2O3PSWLS9,7,1,1,2,8,22391,9/18/17 14:19,10826
A2SBN6V55I5K4I,caus_thomas_all_dis_v1,3R08VXYT7CWEN0AI0GXB5M9N0LO7W2,7,2,2,4,5,13341,9/18/17 14:19,10827
AUOYNTK0GOFOM,caus_thomas_all_dis_v1,33L7PJKHCGZQVXB7FGK6W2YJ7BBT8K,8,4,4,4,5,15306,9/18/17 14:19,10828
A3TQD8CNO16IZK,caus_thomas_all_dis_v1,3P59JYT76LLF9I9IZZB5MBLGLBJ2TQ,8,1,1,5,9,14797,9/18/17 14:19,10829
A1AO1LLP3INAZF,caus_thomas_all_dis_v1,3HYA4D452RK5QDRH4F6G576FU2B2FI,8,2,2,9,1,21329,9/18/17 14:19,10830
A5OJ7FHDAEHR9,caus_thomas_all_dis_v1,3OUYGIZWR7ZALGDX3VY7YDR4ZAF0P0,4,3,3,7,5,6687,9/18/17 14:19,10831
A1CJM3ULFBWN1E,caus_thomas_all_dis_v1,32N49TQG3GJJRD8BH94ZTBSZUKRVA6,8,0,0,1,5,34789,9/18/17 14:19,10832
A3ITZNJQUTIZ4C,caus_thomas_all_dis_v1,3137ONMDKG63ZTZS8J7ZPTFGSK1EGV,7,0,0,9,5,99000,9/18/17 14:19,10833
A1AO1LLP3INAZF,caus_thomas_all_dis_v1,3HYA4D452RK5QDRH4F6G576FU2B2FI,3,3,3,5,8,4711,9/18/17 14:19,10834
A2SBN6V55I5K4I,caus_thomas_all_dis_v1,3R08VXYT7CWEN0AI0GXB5M9N0LO7W2,7,3,3,7,3,7344,9/18/17 14:19,10835
AKG7VBOY97HKA,caus_thomas_all_dis_v1,31Z0PCVWUKGMVJ6O5BS0I22OWR67TC,7,1,1,1,1,32712,9/18/17 14:19,10836
A3TQD8CNO16IZK,caus_thomas_all_dis_v1,3P59JYT76LLF9I9IZZB5MBLGLBJ2TQ,8,2,2,10,4,7957,9/18/17 14:19,10837
A5OJ7FHDAEHR9,caus_thomas_all_dis_v1,3OUYGIZWR7ZALGDX3VY7YDR4ZAF0P0,4,4,4,2,8,4300,9/18/17 14:19,10838
ABKPEX0E9W2HW,caus_thomas_all_dis_v1,3NKQQ8O39Y6HC5MNWTLWNQYM1GFUDI,7,0,0,5,3,18751,9/18/17 14:19,10839
A1P0XSCJ9XAV74,caus_thomas_all_dis_v1,38F71OA9GTXVXHVAEXP0KGKD07SMFT,1,0,0,2,4,35977,9/18/17 14:19,10840
A1AO1LLP3INAZF,caus_thomas_all_dis_v1,3HYA4D452RK5QDRH4F6G576FU2B2FI,5,4,4,7,7,5131,9/18/17 14:19,10841
A2SBN6V55I5K4I,caus_thomas_all_dis_v1,3R08VXYT7CWEN0AI0GXB5M9N0LO7W2,7,4,4,9,7,6301,9/18/17 14:19,10842
A3TQD8CNO16IZK,caus_thomas_all_dis_v1,3P59JYT76LLF9I9IZZB5MBLGLBJ2TQ,8,3,3,1,2,8721,9/18/17 14:19,10843
A1CJM3ULFBWN1E,caus_thomas_all_dis_v1,32N49TQG3GJJRD8BH94ZTBSZUKRVA6,7,1,1,5,10,14422,9/18/17 14:19,10844
A38KA8KXRLEM7M,caus_thomas_all_dis_v1,31HQ4X3T3SBKV4IBK5OKR2O3PSWLS9,1,2,2,8,1,23744,9/18/17 14:19,10845
ABKPEX0E9W2HW,caus_thomas_all_dis_v1,3NKQQ8O39Y6HC5MNWTLWNQYM1GFUDI,7,1,1,8,5,15291,9/18/17 14:19,10846
A3TQD8CNO16IZK,caus_thomas_all_dis_v1,3P59JYT76LLF9I9IZZB5MBLGLBJ2TQ,8,4,4,2,7,6778,9/18/17 14:19,10847
"A1SG071MSEZYM4A1SG071MSEZYM4A1SG071MSEZYM4A1SGA1SG071MSEZYM4A1SG071MSEZYM4",caus_thomas_all_dis_v1,3YWRV122CS05VAQWFLAG1YKLQPI8UQ,4,2,2,5,9,60965,9/18/17 14:19,10848
A1P0XSCJ9XAV74,caus_thomas_all_dis_v1,38F71OA9GTXVXHVAEXP0KGKD07SMFT,2,1,1,6,3,17103,9/18/17 14:19,10849
A1CJM3ULFBWN1E,caus_thomas_all_dis_v1,32N49TQG3GJJRD8BH94ZTBSZUKRVA6,7,2,2,8,8,8462,9/18/17 14:19,10850
A38KA8KXRLEM7M,caus_thomas_all_dis_v1,31HQ4X3T3SBKV4IBK5OKR2O3PSWLS9,2,3,3,5,2,8258,9/18/17 14:19,10851
AKG7VBOY97HKA,caus_thomas_all_dis_v1,31Z0PCVWUKGMVJ6O5BS0I22OWR67TC,8,2,2,2,10,25568,9/18/17 14:19,10852
A1CJM3ULFBWN1E,caus_thomas_all_dis_v1,32N49TQG3GJJRD8BH94ZTBSZUKRVA6,6,3,3,7,6,4995,9/18/17 14:19,10853
ABKPEX0E9W2HW,caus_thomas_all_dis_v1,3NKQQ8O39Y6HC5MNWTLWNQYM1GFUDI,8,2,2,10,8,8966,9/18/17 14:19,10854
A1PJLZSOUQ4MIL,caus_thomas_all_dis_v1,3M0NZ3JDP1Z3UR14NA2L66P9QHW5ZA,1,0,0,9,5,233798,9/18/17 14:19,10855
"A37UF08Y9XG9HTA37UF08Y9XG9HTA37UF08Y9XG9HTA37UF08Y9XG9HTA37UF08Y9XG9HTA37UF08Y9XG9HT",caus_thomas_all_dis_v1,3IAS3U3I0FHFDWF1ZDKKMHFUF4K2B1,4,0,0,6,3,62822,9/18/17 14:19,10856
A1FXGNL1XM81ON,caus_thomas_all_dis_v1,3A1COHJ8NJW0QOKCFM3HIJVVWHH8HQ,6,0,0,4,2,23154,9/18/17 14:19,10857
A38KA8KXRLEM7M,caus_thomas_all_dis_v1,31HQ4X3T3SBKV4IBK5OKR2O3PSWLS9,0,4,4,10,5,8823,9/18/17 14:19,10858
A1CJM3ULFBWN1E,caus_thomas_all_dis_v1,32N49TQG3GJJRD8BH94ZTBSZUKRVA6,7,4,4,9,7,6676,9/18/17 14:19,10859
A1PJLZSOUQ4MIL,caus_thomas_all_dis_v1,3M0NZ3JDP1Z3UR14NA2L66P9QHW5ZA,0,1,1,10,6,6252,9/18/17 14:19,10860
A1P0XSCJ9XAV74,caus_thomas_all_dis_v1,38F71OA9GTXVXHVAEXP0KGKD07SMFT,2,2,2,3,10,17781,9/18/17 14:19,10861
A3ITZNJQUTIZ4C,caus_thomas_all_dis_v1,3137ONMDKG63ZTZS8J7ZPTFGSK1EGV,7,1,1,2,3,43401,9/18/17 14:19,10862
ABKPEX0E9W2HW,caus_thomas_all_dis_v1,3NKQQ8O39Y6HC5MNWTLWNQYM1GFUDI,6,3,3,4,7,13501,9/18/17 14:19,10863
A1PJLZSOUQ4MIL,caus_thomas_all_dis_v1,3M0NZ3JDP1Z3UR14NA2L66P9QHW5ZA,1,2,2,7,4,6655,9/18/17 14:19,10864
A2KDVHF0E0EINH,caus_thomas_all_dis_v1,3XUHV3NRVKZH361AHOWE6ZL4URG5HL,8,0,0,5,9,75284,9/18/17 14:19,10865
A1FXGNL1XM81ON,caus_thomas_all_dis_v1,3A1COHJ8NJW0QOKCFM3HIJVVWHH8HQ,6,1,1,7,5,11301,9/18/17 14:19,10866
"A1SG071MSEZYM4A1SG071MSEZYM4A1SG071MSEZYM4A1SGA1SG071MSEZYM4A1SG071MSEZYM4",caus_thomas_all_dis_v1,3YWRV122CS05VAQWFLAG1YKLQPI8UQ,4,3,3,4,2,27200,9/18/17 14:20,10867
"A37UF08Y9XG9HTA37UF08Y9XG9HTA37UF08Y9XG9HTA37UF08Y9XG9HTA37UF08Y9XG9HTA37UF08Y9XG9HT",caus_thomas_all_dis_v1,3IAS3U3I0FHFDWF1ZDKKMHFUF4K2B1,4,1,1,3,8,15038,9/18/17 14:20,10868
AKG7VBOY97HKA,caus_thomas_all_dis_v1,31Z0PCVWUKGMVJ6O5BS0I22OWR67TC,8,3,3,9,5,21758,9/18/17 14:20,10869
A8MANRICXMMV3,caus_thomas_all_dis_v1,3MX2NQ3YC9VEPW1PMSE09L9YIHZ5XE,4,0,0,6,2,35024,9/18/17 14:20,10870
A1FXGNL1XM81ON,caus_thomas_all_dis_v1,3A1COHJ8NJW0QOKCFM3HIJVVWHH8HQ,2,2,2,6,7,7112,9/18/17 14:20,10871
A1P0XSCJ9XAV74,caus_thomas_all_dis_v1,38F71OA9GTXVXHVAEXP0KGKD07SMFT,1,3,3,8,8,13442,9/18/17 14:20,10872
ABKPEX0E9W2HW,caus_thomas_all_dis_v1,3NKQQ8O39Y6HC5MNWTLWNQYM1GFUDI,6,4,4,3,10,10988,9/18/17 14:20,10873
AE646CIHBMUMX,caus_thomas_all_dis_v1,3KGTPGBS6XMU9VO7Z41FR77I4PR2UI,8,0,0,9,8,49699,9/18/17 14:20,10874
A1PJLZSOUQ4MIL,caus_thomas_all_dis_v1,3M0NZ3JDP1Z3UR14NA2L66P9QHW5ZA,0,3,3,6,3,15254,9/18/17 14:20,10875
A11QDNT3W7DT7K,caus_thomas_all_dis_v1,33FOTY3KEMMRYGPBU9G1SIB75J61CQ,8,0,0,1,6,40148,9/18/17 14:20,10876
A1FXGNL1XM81ON,caus_thomas_all_dis_v1,3A1COHJ8NJW0QOKCFM3HIJVVWHH8HQ,8,3,3,9,3,7620,9/18/17 14:20,10877
" A1QR6I7UPY8XQJ",caus_thomas_all_dis_v1,3IAS3U3I0FHFDWF1ZDKKMHFUF4KB2A,6,0,0,6,4,15449,9/18/17 14:20,10878
A8MANRICXMMV3,caus_thomas_all_dis_v1,3MX2NQ3YC9VEPW1PMSE09L9YIHZ5XE,4,1,1,5,9,9499,9/18/17 14:20,10879
A1P0XSCJ9XAV74,caus_thomas_all_dis_v1,38F71OA9GTXVXHVAEXP0KGKD07SMFT,1,4,4,9,1,8821,9/18/17 14:20,10880
"A37UF08Y9XG9HTA37UF08Y9XG9HTA37UF08Y9XG9HTA37UF08Y9XG9HTA37UF08Y9XG9HTA37UF08Y9XG9HT",caus_thomas_all_dis_v1,3IAS3U3I0FHFDWF1ZDKKMHFUF4K2B1,5,2,2,10,10,15726,9/18/17 14:20,10881
AKG7VBOY97HKA,caus_thomas_all_dis_v1,31Z0PCVWUKGMVJ6O5BS0I22OWR67TC,4,4,4,5,7,13912,9/18/17 14:20,10882
A1PJLZSOUQ4MIL,caus_thomas_all_dis_v1,3M0NZ3JDP1Z3UR14NA2L66P9QHW5ZA,7,4,4,2,8,8104,9/18/17 14:20,10883
A1FXGNL1XM81ON,caus_thomas_all_dis_v1,3A1COHJ8NJW0QOKCFM3HIJVVWHH8HQ,0,4,4,2,9,8087,9/18/17 14:20,10884
A8MANRICXMMV3,caus_thomas_all_dis_v1,3MX2NQ3YC9VEPW1PMSE09L9YIHZ5XE,4,2,2,2,6,7809,9/18/17 14:20,10885
" A1QR6I7UPY8XQJ",caus_thomas_all_dis_v1,3IAS3U3I0FHFDWF1ZDKKMHFUF4KB2A,5,1,1,8,6,8674,9/18/17 14:20,10886
"A37UF08Y9XG9HTA37UF08Y9XG9HTA37UF08Y9XG9HTA37UF08Y9XG9HTA37UF08Y9XG9HTA37UF08Y9XG9HT",caus_thomas_all_dis_v1,3IAS3U3I0FHFDWF1ZDKKMHFUF4K2B1,4,3,3,2,9,11345,9/18/17 14:20,10887
A1A9YNR2L4DB86,caus_thomas_all_dis_v1,3OVHNO1VE62YY4GX2GK44ID13YVDZR,4,0,0,4,5,37797,9/18/17 14:20,10888
" A1QR6I7UPY8XQJ",caus_thomas_all_dis_v1,3IAS3U3I0FHFDWF1ZDKKMHFUF4KB2A,5,2,2,4,3,5370,9/18/17 14:20,10889
A1BH6H9WRK49I,caus_thomas_all_dis_v1,35H6S234SA116HHTL55A98WELDZ65K,8,0,0,5,1,95122,9/18/17 14:20,10890
" A1QR6I7UPY8XQJ",caus_thomas_all_dis_v1,3IAS3U3I0FHFDWF1ZDKKMHFUF4KB2A,4,3,3,10,10,3851,9/18/17 14:20,10891
"A1SG071MSEZYM4A1SG071MSEZYM4A1SG071MSEZYM4A1SGA1SG071MSEZYM4A1SG071MSEZYM4",caus_thomas_all_dis_v1,3YWRV122CS05VAQWFLAG1YKLQPI8UQ,4,4,4,2,5,36697,9/18/17 14:20,10892
"A37UF08Y9XG9HTA37UF08Y9XG9HTA37UF08Y9XG9HTA37UF08Y9XG9HTA37UF08Y9XG9HTA37UF08Y9XG9HT",caus_thomas_all_dis_v1,3IAS3U3I0FHFDWF1ZDKKMHFUF4K2B1,4,4,4,5,7,7487,9/18/17 14:20,10893
A2KDVHF0E0EINH,caus_thomas_all_dis_v1,3XUHV3NRVKZH361AHOWE6ZL4URG5HL,8,1,1,7,8,45862,9/18/17 14:20,10894
A1A9YNR2L4DB86,caus_thomas_all_dis_v1,3OVHNO1VE62YY4GX2GK44ID13YVDZR,4,1,1,6,7,12284,9/18/17 14:20,10895
" A1QR6I7UPY8XQJ",caus_thomas_all_dis_v1,3IAS3U3I0FHFDWF1ZDKKMHFUF4KB2A,5,4,4,3,7,6811,9/18/17 14:20,10896
ADESHZL4W6NJU,caus_thomas_all_dis_v1,31UV0MXWNQDHZ1CUN6EZ6BMJU4V5IE,8,0,0,10,5,94169,9/18/17 14:20,10897
A1BH6H9WRK49I,caus_thomas_all_dis_v1,35H6S234SA116HHTL55A98WELDZ65K,8,1,1,7,5,13340,9/18/17 14:20,10898
AE646CIHBMUMX,caus_thomas_all_dis_v1,3KGTPGBS6XMU9VO7Z41FR77I4PR2UI,8,1,1,1,9,38074,9/18/17 14:20,10899
A1A9YNR2L4DB86,caus_thomas_all_dis_v1,3OVHNO1VE62YY4GX2GK44ID13YVDZR,4,2,2,3,8,6366,9/18/17 14:20,10900
A3UQXYJ8EV62WE,caus_thomas_all_dis_v1,3EQHHY4HQST33A6ZXIEWLZ93FR3G5X,8,0,0,8,7,63208,9/18/17 14:20,10901
A8MANRICXMMV3,caus_thomas_all_dis_v1,3MX2NQ3YC9VEPW1PMSE09L9YIHZ5XE,4,3,3,3,3,32252,9/18/17 14:20,10902
A1BH6H9WRK49I,caus_thomas_all_dis_v1,35H6S234SA116HHTL55A98WELDZ65K,8,2,2,8,4,11267,9/18/17 14:21,10903
AUGCETGD2JOQP,caus_thomas_all_dis_v1,3A9AA95ATWN9GNZY014JF8NVGIQ5PQ,8,0,0,9,7,56765,9/18/17 14:21,10904
A8MANRICXMMV3,caus_thomas_all_dis_v1,3MX2NQ3YC9VEPW1PMSE09L9YIHZ5XE,4,4,4,1,5,5555,9/18/17 14:21,10905
A1BH6H9WRK49I,caus_thomas_all_dis_v1,35H6S234SA116HHTL55A98WELDZ65K,8,3,3,2,9,6284,9/18/17 14:21,10906
A1A9YNR2L4DB86,caus_thomas_all_dis_v1,3OVHNO1VE62YY4GX2GK44ID13YVDZR,4,3,3,8,1,16144,9/18/17 14:21,10907
A2KDVHF0E0EINH,caus_thomas_all_dis_v1,3XUHV3NRVKZH361AHOWE6ZL4URG5HL,8,2,2,10,4,26632,9/18/17 14:21,10908
A1A9YNR2L4DB86,caus_thomas_all_dis_v1,3OVHNO1VE62YY4GX2GK44ID13YVDZR,4,4,4,5,10,4525,9/18/17 14:21,10909
A1BH6H9WRK49I,caus_thomas_all_dis_v1,35H6S234SA116HHTL55A98WELDZ65K,8,4,4,10,10,5213,9/18/17 14:21,10910
A2Q1W107N7K6P1,caus_thomas_all_dis_v1,3JJVG1YBEBY7CTYOHWMIKOI6ZEB5B5,1,0,0,2,4,266637,9/18/17 14:21,10911
AUGCETGD2JOQP,caus_thomas_all_dis_v1,3A9AA95ATWN9GNZY014JF8NVGIQ5PQ,8,1,1,1,1,20767,9/18/17 14:21,10912
A3ITZNJQUTIZ4C,caus_thomas_all_dis_v1,3137ONMDKG63ZTZS8J7ZPTFGSK1EGV,6,2,2,1,4,88732,9/18/17 14:21,10913
AE646CIHBMUMX,caus_thomas_all_dis_v1,3KGTPGBS6XMU9VO7Z41FR77I4PR2UI,8,2,2,8,10,39963,9/18/17 14:21,10914
A3UQXYJ8EV62WE,caus_thomas_all_dis_v1,3EQHHY4HQST33A6ZXIEWLZ93FR3G5X,8,1,1,10,8,35880,9/18/17 14:21,10915
A2Q1W107N7K6P1,caus_thomas_all_dis_v1,3JJVG1YBEBY7CTYOHWMIKOI6ZEB5B5,1,1,1,4,1,11901,9/18/17 14:21,10916
AUGCETGD2JOQP,caus_thomas_all_dis_v1,3A9AA95ATWN9GNZY014JF8NVGIQ5PQ,8,2,2,8,6,10859,9/18/17 14:21,10917
A2KDVHF0E0EINH,caus_thomas_all_dis_v1,3XUHV3NRVKZH361AHOWE6ZL4URG5HL,8,3,3,4,2,25301,9/18/17 14:21,10918
A11QDNT3W7DT7K,caus_thomas_all_dis_v1,33FOTY3KEMMRYGPBU9G1SIB75J61CQ,8,1,1,6,10,83270,9/18/17 14:21,10919
A3UQXYJ8EV62WE,caus_thomas_all_dis_v1,3EQHHY4HQST33A6ZXIEWLZ93FR3G5X,8,2,2,1,10,12586,9/18/17 14:21,10920
AE646CIHBMUMX,caus_thomas_all_dis_v1,3KGTPGBS6XMU9VO7Z41FR77I4PR2UI,8,3,3,10,5,13951,9/18/17 14:21,10921
A1SN0UU3V61IIM,caus_thomas_all_dis_v1,3DI28L7YXAF6VE9PQ0MWI6BAQVJ1EJ,3,0,0,6,7,85613,9/18/17 14:21,10922
AUGCETGD2JOQP,caus_thomas_all_dis_v1,3A9AA95ATWN9GNZY014JF8NVGIQ5PQ,8,3,3,2,10,11235,9/18/17 14:21,10923
A2Q1W107N7K6P1,caus_thomas_all_dis_v1,3JJVG1YBEBY7CTYOHWMIKOI6ZEB5B5,1,2,2,9,9,14236,9/18/17 14:21,10924
A3ITZNJQUTIZ4C,caus_thomas_all_dis_v1,3137ONMDKG63ZTZS8J7ZPTFGSK1EGV,7,3,3,10,8,28784,9/18/17 14:21,10925
A11QDNT3W7DT7K,caus_thomas_all_dis_v1,33FOTY3KEMMRYGPBU9G1SIB75J61CQ,8,2,2,4,3,17167,9/18/17 14:21,10926
A3UQXYJ8EV62WE,caus_thomas_all_dis_v1,3EQHHY4HQST33A6ZXIEWLZ93FR3G5X,8,3,3,5,6,11240,9/18/17 14:21,10927
AUGCETGD2JOQP,caus_thomas_all_dis_v1,3A9AA95ATWN9GNZY014JF8NVGIQ5PQ,8,4,4,7,9,10465,9/18/17 14:21,10928
AE646CIHBMUMX,caus_thomas_all_dis_v1,3KGTPGBS6XMU9VO7Z41FR77I4PR2UI,8,4,4,6,2,12026,9/18/17 14:21,10929
A2Q1W107N7K6P1,caus_thomas_all_dis_v1,3JJVG1YBEBY7CTYOHWMIKOI6ZEB5B5,0,3,3,10,10,11658,9/18/17 14:22,10930
A2KDVHF0E0EINH,caus_thomas_all_dis_v1,3XUHV3NRVKZH361AHOWE6ZL4URG5HL,8,4,4,8,6,24168,9/18/17 14:22,10931
A11QDNT3W7DT7K,caus_thomas_all_dis_v1,33FOTY3KEMMRYGPBU9G1SIB75J61CQ,8,3,3,9,5,7309,9/18/17 14:22,10932
A2Q1W107N7K6P1,caus_thomas_all_dis_v1,3JJVG1YBEBY7CTYOHWMIKOI6ZEB5B5,2,4,4,1,3,5213,9/18/17 14:22,10933
A1SN0UU3V61IIM,caus_thomas_all_dis_v1,3DI28L7YXAF6VE9PQ0MWI6BAQVJ1EJ,8,1,1,9,5,21083,9/18/17 14:22,10934
A3UQXYJ8EV62WE,caus_thomas_all_dis_v1,3EQHHY4HQST33A6ZXIEWLZ93FR3G5X,5,4,4,2,5,11443,9/18/17 14:22,10935
A28RR7H7BMA8IW,caus_thomas_all_dis_v1,3DIP6YHAPCTO6ETAPLVBXGYI41PE8G,7,0,0,5,5,42590,9/18/17 14:22,10936
A11QDNT3W7DT7K,caus_thomas_all_dis_v1,33FOTY3KEMMRYGPBU9G1SIB75J61CQ,8,4,4,10,2,7453,9/18/17 14:22,10937
A3ITZNJQUTIZ4C,caus_thomas_all_dis_v1,3137ONMDKG63ZTZS8J7ZPTFGSK1EGV,6,4,4,6,1,22036,9/18/17 14:22,10938
A5JMH4GQPZB4N,caus_thomas_all_dis_v1,3U088ZLJVKU05PAYFHC2Q7Z0S7HW0Q,8,0,0,4,4,75625,9/18/17 14:22,10939
A1ZZ4RZNJ73HPT,caus_thomas_all_dis_v1,3B1NLC6UGZX7WKOIHXNAJ5EK6R4GPJ,2,0,0,5,2,28723,9/18/17 14:22,10940
A1SN0UU3V61IIM,caus_thomas_all_dis_v1,3DI28L7YXAF6VE9PQ0MWI6BAQVJ1EJ,5,2,2,4,3,24059,9/18/17 14:22,10941
AURYD2FH3FUOQ,caus_thomas_all_dis_v1,3X0H8UUIT1P06YUAOJVM0D5JNZ0WSD,5,0,0,10,7,500036,9/18/17 14:22,10942
A2S3SV1LQTKJ8K,caus_thomas_all_dis_v1,3Z7VU45IPYI4690LMN093GCSE1S1ZP,8,0,0,7,3,44768,9/18/17 14:22,10943
A1ZZ4RZNJ73HPT,caus_thomas_all_dis_v1,3B1NLC6UGZX7WKOIHXNAJ5EK6R4GPJ,5,1,1,3,6,13151,9/18/17 14:22,10944
A1OE4SDOGXFOUP,caus_thomas_all_dis_v1,3FTOP5WARFPEZ5AZ8ITN1H5SQB9J0J,8,0,0,9,8,74087,9/18/17 14:22,10945
A1SN0UU3V61IIM,caus_thomas_all_dis_v1,3DI28L7YXAF6VE9PQ0MWI6BAQVJ1EJ,1,3,3,2,6,15501,9/18/17 14:22,10946
A5JMH4GQPZB4N,caus_thomas_all_dis_v1,3U088ZLJVKU05PAYFHC2Q7Z0S7HW0Q,8,1,1,5,5,19551,9/18/17 14:22,10947
A1ZZ4RZNJ73HPT,caus_thomas_all_dis_v1,3B1NLC6UGZX7WKOIHXNAJ5EK6R4GPJ,8,2,2,1,9,7172,9/18/17 14:22,10948
AURYD2FH3FUOQ,caus_thomas_all_dis_v1,3X0H8UUIT1P06YUAOJVM0D5JNZ0WSD,5,1,1,1,4,14223,9/18/17 14:22,10949
A2D8G4WJIZ3URG,caus_thomas_all_dis_v1,3O7L7BFSHEQHVK5NY772A5SW7XUEIO,7,0,0,6,10,54545,9/18/17 14:23,10950
A2S3SV1LQTKJ8K,caus_thomas_all_dis_v1,3Z7VU45IPYI4690LMN093GCSE1S1ZP,8,1,1,8,5,19642,9/18/17 14:23,10951
A1ZZ4RZNJ73HPT,caus_thomas_all_dis_v1,3B1NLC6UGZX7WKOIHXNAJ5EK6R4GPJ,5,3,3,4,4,9984,9/18/17 14:23,10952
A1SN0UU3V61IIM,caus_thomas_all_dis_v1,3DI28L7YXAF6VE9PQ0MWI6BAQVJ1EJ,8,4,4,10,1,13715,9/18/17 14:23,10953
ADESHZL4W6NJU,caus_thomas_all_dis_v1,31UV0MXWNQDHZ1CUN6EZ6BMJU4V5IE,8,1,1,8,10,141016,9/18/17 14:23,10954
AURYD2FH3FUOQ,caus_thomas_all_dis_v1,3X0H8UUIT1P06YUAOJVM0D5JNZ0WSD,5,2,2,4,5,12765,9/18/17 14:23,10955
A5JMH4GQPZB4N,caus_thomas_all_dis_v1,3U088ZLJVKU05PAYFHC2Q7Z0S7HW0Q,8,2,2,3,3,18749,9/18/17 14:23,10956
A1ZZ4RZNJ73HPT,caus_thomas_all_dis_v1,3B1NLC6UGZX7WKOIHXNAJ5EK6R4GPJ,1,4,4,8,3,8760,9/18/17 14:23,10957
A2D8G4WJIZ3URG,caus_thomas_all_dis_v1,3O7L7BFSHEQHVK5NY772A5SW7XUEIO,3,1,1,2,4,12622,9/18/17 14:23,10958
A28RR7H7BMA8IW,caus_thomas_all_dis_v1,3DIP6YHAPCTO6ETAPLVBXGYI41PE8G,6,1,1,4,2,63161,9/18/17 14:23,10959
A2S3SV1LQTKJ8K,caus_thomas_all_dis_v1,3Z7VU45IPYI4690LMN093GCSE1S1ZP,8,2,2,1,9,15152,9/18/17 14:23,10960
A1OE4SDOGXFOUP,caus_thomas_all_dis_v1,3FTOP5WARFPEZ5AZ8ITN1H5SQB9J0J,8,1,1,2,5,30222,9/18/17 14:23,10961
A1X79L9S8T2A0Z,caus_thomas_all_dis_v1,3Z4XG4ZF48SXCEKRKQL3L5JPK708XJ,8,0,0,9,6,140292,9/18/17 14:23,10962
A5JMH4GQPZB4N,caus_thomas_all_dis_v1,3U088ZLJVKU05PAYFHC2Q7Z0S7HW0Q,8,3,3,8,10,10714,9/18/17 14:23,10963
A3RUKNCDJBNV6Y,caus_thomas_all_dis_v1,3GFK2QRXX9IZ0WWZCNIE72VR9FT5WL,7,0,0,5,1,62635,9/18/17 14:23,10964
A2D8G4WJIZ3URG,caus_thomas_all_dis_v1,3O7L7BFSHEQHVK5NY772A5SW7XUEIO,3,2,2,7,7,10868,9/18/17 14:23,10965
ADESHZL4W6NJU,caus_thomas_all_dis_v1,31UV0MXWNQDHZ1CUN6EZ6BMJU4V5IE,8,2,2,2,1,18383,9/18/17 14:23,10966
A5JMH4GQPZB4N,caus_thomas_all_dis_v1,3U088ZLJVKU05PAYFHC2Q7Z0S7HW0Q,8,4,4,7,6,6947,9/18/17 14:23,10967
A2S3SV1LQTKJ8K,caus_thomas_all_dis_v1,3Z7VU45IPYI4690LMN093GCSE1S1ZP,8,3,3,2,6,11394,9/18/17 14:23,10968
A28RR7H7BMA8IW,caus_thomas_all_dis_v1,3DIP6YHAPCTO6ETAPLVBXGYI41PE8G,7,2,2,2,9,16513,9/18/17 14:23,10969
A2ESHUE4PV9GIT,caus_thomas_all_dis_v1,3NVC2EB65Q00BM4VD5C9D2IN6R23YS,8,0,0,5,3,42009,9/18/17 14:23,10970
ADESHZL4W6NJU,caus_thomas_all_dis_v1,31UV0MXWNQDHZ1CUN6EZ6BMJU4V5IE,8,3,3,4,6,12010,9/18/17 14:23,10971
AS3NVQVA4OC91,caus_thomas_all_dis_v1,3RUIQRXJBBPXRRNL0WRJFGA8XYPLLW,8,0,0,10,2,52821,9/18/17 14:23,10972
A2S3SV1LQTKJ8K,caus_thomas_all_dis_v1,3Z7VU45IPYI4690LMN093GCSE1S1ZP,8,4,4,3,8,9448,9/18/17 14:23,10973
A2D8G4WJIZ3URG,caus_thomas_all_dis_v1,3O7L7BFSHEQHVK5NY772A5SW7XUEIO,1,3,3,10,5,14179,9/18/17 14:23,10974
A1OE4SDOGXFOUP,caus_thomas_all_dis_v1,3FTOP5WARFPEZ5AZ8ITN1H5SQB9J0J,8,2,2,7,10,21554,9/18/17 14:23,10975
A3RUKNCDJBNV6Y,caus_thomas_all_dis_v1,3GFK2QRXX9IZ0WWZCNIE72VR9FT5WL,4,1,1,10,10,21003,9/18/17 14:23,10976
A2ESHUE4PV9GIT,caus_thomas_all_dis_v1,3NVC2EB65Q00BM4VD5C9D2IN6R23YS,5,1,1,4,4,8983,9/18/17 14:23,10977
A28RR7H7BMA8IW,caus_thomas_all_dis_v1,3DIP6YHAPCTO6ETAPLVBXGYI41PE8G,7,3,3,9,4,11817,9/18/17 14:23,10978
A2D8G4WJIZ3URG,caus_thomas_all_dis_v1,3O7L7BFSHEQHVK5NY772A5SW7XUEIO,2,4,4,4,1,7016,9/18/17 14:23,10979
A37Q3659BNZQNZ,caus_thomas_all_dis_v1,3C2NJ6JBKAIHE54Y23PTDCFOWTXN2A,7,0,0,7,8,41410,9/18/17 14:23,10980
ADESHZL4W6NJU,caus_thomas_all_dis_v1,31UV0MXWNQDHZ1CUN6EZ6BMJU4V5IE,8,4,4,5,7,10507,9/18/17 14:23,10981
COPIEDA2EJ06OGI9671,caus_thomas_all_dis_v1,3XM0HYN6NK09C6SRB2XMJ2T8TBPEP0,3,0,0,5,7,39924,9/18/17 14:23,10982
A31C3PYKA89BDK,caus_thomas_all_dis_v1,3300DTYQT2IUCIT6BFCBJ7JIY7BEQR,0,0,0,4,3,53976,9/18/17 14:23,10983
A2ESHUE4PV9GIT,caus_thomas_all_dis_v1,3NVC2EB65Q00BM4VD5C9D2IN6R23YS,8,2,2,10,8,8202,9/18/17 14:23,10984
A3RUKNCDJBNV6Y,caus_thomas_all_dis_v1,3GFK2QRXX9IZ0WWZCNIE72VR9FT5WL,6,2,2,9,5,14056,9/18/17 14:23,10985
A1X79L9S8T2A0Z,caus_thomas_all_dis_v1,3Z4XG4ZF48SXCEKRKQL3L5JPK708XJ,8,1,1,5,8,38432,9/18/17 14:24,10986
A1OE4SDOGXFOUP,caus_thomas_all_dis_v1,3FTOP5WARFPEZ5AZ8ITN1H5SQB9J0J,8,3,3,5,3,17858,9/18/17 14:24,10987
A37Q3659BNZQNZ,caus_thomas_all_dis_v1,3C2NJ6JBKAIHE54Y23PTDCFOWTXN2A,7,1,1,4,5,14153,9/18/17 14:24,10988
AS3NVQVA4OC91,caus_thomas_all_dis_v1,3RUIQRXJBBPXRRNL0WRJFGA8XYPLLW,8,1,1,2,7,22804,9/18/17 14:24,10989
A2ESHUE4PV9GIT,caus_thomas_all_dis_v1,3NVC2EB65Q00BM4VD5C9D2IN6R23YS,4,3,3,1,10,10997,9/18/17 14:24,10990
A3RUKNCDJBNV6Y,caus_thomas_all_dis_v1,3GFK2QRXX9IZ0WWZCNIE72VR9FT5WL,7,3,3,1,2,8744,9/18/17 14:24,10991
A2ESHUE4PV9GIT,caus_thomas_all_dis_v1,3NVC2EB65Q00BM4VD5C9D2IN6R23YS,7,4,4,9,9,5018,9/18/17 14:24,10992
 A10WU6W59U285S,caus_thomas_all_dis_v1,3D8YOU6S9ELIRW78M6DIHKOUKUT6U3,8,0,0,10,5,85249,9/18/17 14:24,10993
A31C3PYKA89BDK,caus_thomas_all_dis_v1,3300DTYQT2IUCIT6BFCBJ7JIY7BEQR,3,1,1,7,4,18860,9/18/17 14:24,10994
A37Q3659BNZQNZ,caus_thomas_all_dis_v1,3C2NJ6JBKAIHE54Y23PTDCFOWTXN2A,7,2,2,5,1,8744,9/18/17 14:24,10995
AS3NVQVA4OC91,caus_thomas_all_dis_v1,3RUIQRXJBBPXRRNL0WRJFGA8XYPLLW,8,2,2,7,3,12106,9/18/17 14:24,10996
ALVDFSFKVL47P,caus_thomas_all_dis_v1,3W8CV64QJ2004T3MKE9VIFQ6GNZ9HG,8,0,0,3,2,69987,9/18/17 14:24,10997
A1X79L9S8T2A0Z,caus_thomas_all_dis_v1,3Z4XG4ZF48SXCEKRKQL3L5JPK708XJ,8,2,2,4,1,18661,9/18/17 14:24,10998
A37Q3659BNZQNZ,caus_thomas_all_dis_v1,3C2NJ6JBKAIHE54Y23PTDCFOWTXN2A,8,3,3,1,10,6712,9/18/17 14:24,10999
A2C2WXXKJOLCZ2,caus_thomas_all_dis_v1,3R6P78PK7KC5OCHPYEWUOFFHVUOGTN,6,0,0,7,2,57451,9/18/17 14:24,11000
A37X1GHLB2HCX7,caus_thomas_all_dis_v1,3SKRO2GZ71S9HE1ZMMXZG1OFASFK1M,0,0,0,2,8,28353,9/18/17 14:24,11001
A1OE4SDOGXFOUP,caus_thomas_all_dis_v1,3FTOP5WARFPEZ5AZ8ITN1H5SQB9J0J,8,4,4,3,1,21167,9/18/17 14:24,11002
A1QP4NP83WGF17,caus_thomas_all_dis_v1,39DD6S19JPC3QAUXYBVOA0VM3AWEZL,8,0,0,9,7,21062,9/18/17 14:24,11003
A3RUKNCDJBNV6Y,caus_thomas_all_dis_v1,3GFK2QRXX9IZ0WWZCNIE72VR9FT5WL,4,4,4,8,9,15249,9/18/17 14:24,11004
A31C3PYKA89BDK,caus_thomas_all_dis_v1,3300DTYQT2IUCIT6BFCBJ7JIY7BEQR,0,2,2,1,10,13509,9/18/17 14:24,11005
AS3NVQVA4OC91,caus_thomas_all_dis_v1,3RUIQRXJBBPXRRNL0WRJFGA8XYPLLW,8,3,3,6,9,10476,9/18/17 14:24,11006
A37Q3659BNZQNZ,caus_thomas_all_dis_v1,3C2NJ6JBKAIHE54Y23PTDCFOWTXN2A,8,4,4,2,3,6707,9/18/17 14:24,11007
A28RR7H7BMA8IW,caus_thomas_all_dis_v1,3DIP6YHAPCTO6ETAPLVBXGYI41PE8G,7,4,4,3,10,43261,9/18/17 14:24,11008
AURYD2FH3FUOQ,caus_thomas_all_dis_v1,3X0H8UUIT1P06YUAOJVM0D5JNZ0WSD,5,3,3,6,9,82383,9/18/17 14:24,11009
A1QP4NP83WGF17,caus_thomas_all_dis_v1,39DD6S19JPC3QAUXYBVOA0VM3AWEZL,0,1,1,5,9,10272,9/18/17 14:24,11010
A1X79L9S8T2A0Z,caus_thomas_all_dis_v1,3Z4XG4ZF48SXCEKRKQL3L5JPK708XJ,8,3,3,7,7,15564,9/18/17 14:24,11011
AS3NVQVA4OC91,caus_thomas_all_dis_v1,3RUIQRXJBBPXRRNL0WRJFGA8XYPLLW,8,4,4,3,4,7683,9/18/17 14:24,11012
AURYD2FH3FUOQ,caus_thomas_all_dis_v1,3X0H8UUIT1P06YUAOJVM0D5JNZ0WSD,5,4,4,2,8,5353,9/18/17 14:24,11013
A37X1GHLB2HCX7,caus_thomas_all_dis_v1,3SKRO2GZ71S9HE1ZMMXZG1OFASFK1M,6,1,1,3,1,16051,9/18/17 14:24,11014
A2C2WXXKJOLCZ2,caus_thomas_all_dis_v1,3R6P78PK7KC5OCHPYEWUOFFHVUOGTN,6,1,1,6,7,22206,9/18/17 14:24,11015
A1QP4NP83WGF17,caus_thomas_all_dis_v1,39DD6S19JPC3QAUXYBVOA0VM3AWEZL,8,2,2,8,3,7678,9/18/17 14:24,11016
A1QP4NP83WGF17,caus_thomas_all_dis_v1,39DD6S19JPC3QAUXYBVOA0VM3AWEZL,0,3,3,3,10,5631,9/18/17 14:24,11017
A37X1GHLB2HCX7,caus_thomas_all_dis_v1,3SKRO2GZ71S9HE1ZMMXZG1OFASFK1M,8,2,2,8,5,11508,9/18/17 14:24,11018
A1X79L9S8T2A0Z,caus_thomas_all_dis_v1,3Z4XG4ZF48SXCEKRKQL3L5JPK708XJ,8,4,4,1,5,14066,9/18/17 14:24,11019
 A10WU6W59U285S,caus_thomas_all_dis_v1,3D8YOU6S9ELIRW78M6DIHKOUKUT6U3,8,1,1,4,1,40876,9/18/17 14:24,11020
ALVDFSFKVL47P,caus_thomas_all_dis_v1,3W8CV64QJ2004T3MKE9VIFQ6GNZ9HG,8,1,1,10,3,37065,9/18/17 14:24,11021
A1QP4NP83WGF17,caus_thomas_all_dis_v1,39DD6S19JPC3QAUXYBVOA0VM3AWEZL,0,4,4,4,4,5028,9/18/17 14:24,11022
A37X1GHLB2HCX7,caus_thomas_all_dis_v1,3SKRO2GZ71S9HE1ZMMXZG1OFASFK1M,0,3,3,7,10,7774,9/18/17 14:25,11023
A2C2WXXKJOLCZ2,caus_thomas_all_dis_v1,3R6P78PK7KC5OCHPYEWUOFFHVUOGTN,6,2,2,8,5,16484,9/18/17 14:25,11024
A31C3PYKA89BDK,caus_thomas_all_dis_v1,3300DTYQT2IUCIT6BFCBJ7JIY7BEQR,4,3,3,9,9,34768,9/18/17 14:25,11025
A24Q1UMV25TBV2,caus_thomas_all_dis_v1,3TPWUS5F892KZH5ERX5ML8111WEWCJ,5,0,0,3,3,2999,9/18/17 14:25,11026
A37X1GHLB2HCX7,caus_thomas_all_dis_v1,3SKRO2GZ71S9HE1ZMMXZG1OFASFK1M,4,4,4,5,6,8004,9/18/17 14:25,11027
A27HVVLSZZ13XK,caus_thomas_all_dis_v1,38JBBYETQOBNND68DI5YG4ID2FT4EZ,7,0,0,3,8,46647,9/18/17 14:25,11028
 A10WU6W59U285S,caus_thomas_all_dis_v1,3D8YOU6S9ELIRW78M6DIHKOUKUT6U3,8,2,2,2,9,15484,9/18/17 14:25,11029
COPIEDA2EJ06OGI9671,caus_thomas_all_dis_v1,3XM0HYN6NK09C6SRB2XMJ2T8TBPEP0,8,1,1,8,1,78631,9/18/17 14:25,11030
A24Q1UMV25TBV2,caus_thomas_all_dis_v1,3TPWUS5F892KZH5ERX5ML8111WEWCJ,4,1,1,4,2,3581,9/18/17 14:25,11031
A1WYDO7PQJ8UG,caus_thomas_all_dis_v1,3WLEIWSYHOIP49INZ5UG8SISAHPH2W,8,0,0,4,8,65425,9/18/17 14:25,11032
ACDWBEBOTM2JW,caus_thomas_all_dis_v1,3BV8HQ2ZZW2YCNTAG1WRHJC0DR1A6V,8,0,0,2,6,40016,9/18/17 14:25,11033
A2C2WXXKJOLCZ2,caus_thomas_all_dis_v1,3R6P78PK7KC5OCHPYEWUOFFHVUOGTN,6,3,3,2,3,12193,9/18/17 14:25,11034
A31C3PYKA89BDK,caus_thomas_all_dis_v1,3300DTYQT2IUCIT6BFCBJ7JIY7BEQR,0,4,4,10,5,13319,9/18/17 14:25,11035
ALVDFSFKVL47P,caus_thomas_all_dis_v1,3W8CV64QJ2004T3MKE9VIFQ6GNZ9HG,6,2,2,4,10,29751,9/18/17 14:25,11036
A2VX8B1CJXRN2,caus_thomas_all_dis_v1,3DOCMVPBTNFD3RTROMND50IM7ONNN0,6,0,0,1,8,105094,9/18/17 14:25,11037
A2C2WXXKJOLCZ2,caus_thomas_all_dis_v1,3R6P78PK7KC5OCHPYEWUOFFHVUOGTN,6,4,4,4,4,13767,9/18/17 14:25,11038
 A10WU6W59U285S,caus_thomas_all_dis_v1,3D8YOU6S9ELIRW78M6DIHKOUKUT6U3,8,3,3,1,7,18364,9/18/17 14:25,11039
COPIEDA2EJ06OGI9671,caus_thomas_all_dis_v1,3XM0HYN6NK09C6SRB2XMJ2T8TBPEP0,5,2,2,6,4,17301,9/18/17 14:25,11040
A27HVVLSZZ13XK,caus_thomas_all_dis_v1,38JBBYETQOBNND68DI5YG4ID2FT4EZ,2,1,1,8,6,21848,9/18/17 14:25,11041
A1PNQWE4UAI1P2,caus_thomas_all_dis_v1,33FBRBDW6O099G9WTUPG7SYFJPCC8L,4,0,0,9,10,60537,9/18/17 14:25,11042
ACDWBEBOTM2JW,caus_thomas_all_dis_v1,3BV8HQ2ZZW2YCNTAG1WRHJC0DR1A6V,8,1,1,7,4,20616,9/18/17 14:25,11043
 A10WU6W59U285S,caus_thomas_all_dis_v1,3D8YOU6S9ELIRW78M6DIHKOUKUT6U3,8,4,4,5,4,8748,9/18/17 14:25,11044
A1WYDO7PQJ8UG,caus_thomas_all_dis_v1,3WLEIWSYHOIP49INZ5UG8SISAHPH2W,8,1,1,6,3,28338,9/18/17 14:25,11045
A20TDOFTFYFYXA,caus_thomas_all_dis_v1,3E4GGUZ1T8SG6ZJV5QXDLKYK2YTK23,6,0,0,4,6,50471,9/18/17 14:25,11046
A1IWRYUOVXAB0Z,caus_thomas_all_dis_v1,3X65QVEQI0O4ONTFNJYKCXKL3PBCL7,0,0,0,7,2,24300,9/18/17 14:25,11047
ACDWBEBOTM2JW,caus_thomas_all_dis_v1,3BV8HQ2ZZW2YCNTAG1WRHJC0DR1A6V,8,2,2,1,3,9955,9/18/17 14:25,11048
COPIEDA2EJ06OGI9671,caus_thomas_all_dis_v1,3XM0HYN6NK09C6SRB2XMJ2T8TBPEP0,3,3,3,9,10,18677,9/18/17 14:25,11049
A1WYDO7PQJ8UG,caus_thomas_all_dis_v1,3WLEIWSYHOIP49INZ5UG8SISAHPH2W,8,2,2,8,5,9954,9/18/17 14:25,11050
ACDWBEBOTM2JW,caus_thomas_all_dis_v1,3BV8HQ2ZZW2YCNTAG1WRHJC0DR1A6V,8,3,3,6,10,6507,9/18/17 14:25,11051
A3PG7IRVJU3BKR,caus_thomas_all_dis_v1,3ND9UOO81K3D2LZK4AYLORROV5TLWP,6,0,0,4,7,28588,9/18/17 14:25,11052
ALVDFSFKVL47P,caus_thomas_all_dis_v1,3W8CV64QJ2004T3MKE9VIFQ6GNZ9HG,6,3,3,5,5,28573,9/18/17 14:25,11053
A27HVVLSZZ13XK,caus_thomas_all_dis_v1,38JBBYETQOBNND68DI5YG4ID2FT4EZ,3,2,2,6,5,25048,9/18/17 14:25,11054
COPIEDA2EJ06OGI9671,caus_thomas_all_dis_v1,3XM0HYN6NK09C6SRB2XMJ2T8TBPEP0,8,4,4,10,3,8086,9/18/17 14:25,11055
ATUWQRSJAZQMH,caus_thomas_all_dis_v1,33JKGHPFYCV7L98RCL8DSLTM2YFMN1,8,0,0,1,8,38961,9/18/17 14:26,11056
ACDWBEBOTM2JW,caus_thomas_all_dis_v1,3BV8HQ2ZZW2YCNTAG1WRHJC0DR1A6V,8,4,4,5,2,6452,9/18/17 14:26,11057
A1IWRYUOVXAB0Z,caus_thomas_all_dis_v1,3X65QVEQI0O4ONTFNJYKCXKL3PBCL7,0,1,1,9,3,17852,9/18/17 14:26,11058
A20TDOFTFYFYXA,caus_thomas_all_dis_v1,3E4GGUZ1T8SG6ZJV5QXDLKYK2YTK23,6,1,1,3,3,20205,9/18/17 14:26,11059
A2VX8B1CJXRN2,caus_thomas_all_dis_v1,3DOCMVPBTNFD3RTROMND50IM7ONNN0,5,1,1,2,3,36099,9/18/17 14:26,11060
A1WYDO7PQJ8UG,caus_thomas_all_dis_v1,3WLEIWSYHOIP49INZ5UG8SISAHPH2W,8,3,3,1,9,13085,9/18/17 14:26,11061
ALVDFSFKVL47P,caus_thomas_all_dis_v1,3W8CV64QJ2004T3MKE9VIFQ6GNZ9HG,6,4,4,6,4,11551,9/18/17 14:26,11062
A1KQTW3EZYXXRD,caus_thomas_all_dis_v1,38F5OAUN5NDWQAFT5HBB4JZ0LXB7H2,6,0,0,1,8,78233,9/18/17 14:26,11063
A27HVVLSZZ13XK,caus_thomas_all_dis_v1,38JBBYETQOBNND68DI5YG4ID2FT4EZ,1,3,3,9,3,10949,9/18/17 14:26,11064
A1PNQWE4UAI1P2,caus_thomas_all_dis_v1,33FBRBDW6O099G9WTUPG7SYFJPCC8L,3,1,1,1,8,35398,9/18/17 14:26,11065
A1IWRYUOVXAB0Z,caus_thomas_all_dis_v1,3X65QVEQI0O4ONTFNJYKCXKL3PBCL7,0,2,2,8,8,8215,9/18/17 14:26,11066
A20TDOFTFYFYXA,caus_thomas_all_dis_v1,3E4GGUZ1T8SG6ZJV5QXDLKYK2YTK23,6,2,2,6,1,7807,9/18/17 14:26,11067
ATUWQRSJAZQMH,caus_thomas_all_dis_v1,33JKGHPFYCV7L98RCL8DSLTM2YFMN1,8,1,1,5,9,16694,9/18/17 14:26,11068
A2EKYWX5XNXSAG,caus_thomas_all_dis_v1,3ZWFC4W1UU8MUX82J5LH6FEN6USFRB,6,0,0,5,8,34626,9/18/17 14:26,11069
A1WYDO7PQJ8UG,caus_thomas_all_dis_v1,3WLEIWSYHOIP49INZ5UG8SISAHPH2W,8,4,4,9,7,10774,9/18/17 14:26,11070
A3PG7IRVJU3BKR,caus_thomas_all_dis_v1,3ND9UOO81K3D2LZK4AYLORROV5TLWP,2,1,1,3,8,24728,9/18/17 14:26,11071
A1IWRYUOVXAB0Z,caus_thomas_all_dis_v1,3X65QVEQI0O4ONTFNJYKCXKL3PBCL7,0,3,3,5,6,7769,9/18/17 14:26,11072
A20TDOFTFYFYXA,caus_thomas_all_dis_v1,3E4GGUZ1T8SG6ZJV5QXDLKYK2YTK23,6,3,3,2,4,7240,9/18/17 14:26,11073
ATUWQRSJAZQMH,caus_thomas_all_dis_v1,33JKGHPFYCV7L98RCL8DSLTM2YFMN1,8,2,2,6,4,6274,9/18/17 14:26,11074
A1IWRYUOVXAB0Z,caus_thomas_all_dis_v1,3X65QVEQI0O4ONTFNJYKCXKL3PBCL7,0,4,4,4,5,6567,9/18/17 14:26,11075
A1XILS2KA5CZJQ,caus_thomas_all_dis_v1,3K4J6M3CXEU09GIGSE5DTAPP754AGX,8,0,0,6,1,53412,9/18/17 14:26,11076
A27HVVLSZZ13XK,caus_thomas_all_dis_v1,38JBBYETQOBNND68DI5YG4ID2FT4EZ,8,4,4,1,10,20641,9/18/17 14:26,11077
A20TDOFTFYFYXA,caus_thomas_all_dis_v1,3E4GGUZ1T8SG6ZJV5QXDLKYK2YTK23,6,4,4,1,5,7694,9/18/17 14:26,11078
A1PNQWE4UAI1P2,caus_thomas_all_dis_v1,33FBRBDW6O099G9WTUPG7SYFJPCC8L,4,2,2,3,3,19869,9/18/17 14:26,11079
A3PG7IRVJU3BKR,caus_thomas_all_dis_v1,3ND9UOO81K3D2LZK4AYLORROV5TLWP,4,2,2,10,6,11301,9/18/17 14:26,11080
ATUWQRSJAZQMH,caus_thomas_all_dis_v1,33JKGHPFYCV7L98RCL8DSLTM2YFMN1,8,3,3,9,2,8103,9/18/17 14:26,11081
A2VX8B1CJXRN2,caus_thomas_all_dis_v1,3DOCMVPBTNFD3RTROMND50IM7ONNN0,2,2,2,9,7,26863,9/18/17 14:26,11082
A1KQTW3EZYXXRD,caus_thomas_all_dis_v1,38F5OAUN5NDWQAFT5HBB4JZ0LXB7H2,6,1,1,3,5,25915,9/18/17 14:26,11083
A2EKYWX5XNXSAG,caus_thomas_all_dis_v1,3ZWFC4W1UU8MUX82J5LH6FEN6USFRB,5,1,1,8,10,16547,9/18/17 14:26,11084
ATUWQRSJAZQMH,caus_thomas_all_dis_v1,33JKGHPFYCV7L98RCL8DSLTM2YFMN1,8,4,4,2,6,7896,9/18/17 14:26,11085
A2EKYWX5XNXSAG,caus_thomas_all_dis_v1,3ZWFC4W1UU8MUX82J5LH6FEN6USFRB,6,2,2,2,9,7682,9/18/17 14:26,11086
A1KQTW3EZYXXRD,caus_thomas_all_dis_v1,38F5OAUN5NDWQAFT5HBB4JZ0LXB7H2,6,2,2,8,4,11777,9/18/17 14:26,11087
A1PNQWE4UAI1P2,caus_thomas_all_dis_v1,33FBRBDW6O099G9WTUPG7SYFJPCC8L,4,3,3,7,6,15087,9/18/17 14:26,11088
A1ZPYSX30BDIVW,caus_thomas_all_dis_v1,3OUYGIZWR7ZALGDX3VY7YDR4ZAFP0P,8,0,0,10,4,65761,9/18/17 14:26,11089
A3PG7IRVJU3BKR,caus_thomas_all_dis_v1,3ND9UOO81K3D2LZK4AYLORROV5TLWP,3,3,3,2,3,16960,9/18/17 14:26,11090
AMNMG3DCCC166,caus_thomas_all_dis_v1,3G5W44VEU7J6LTR245I2NOSLCHXGKH,8,0,0,3,10,35093,9/18/17 14:26,11091
A1XILS2KA5CZJQ,caus_thomas_all_dis_v1,3K4J6M3CXEU09GIGSE5DTAPP754AGX,8,1,1,5,4,20775,9/18/17 14:26,11092
A2EKYWX5XNXSAG,caus_thomas_all_dis_v1,3ZWFC4W1UU8MUX82J5LH6FEN6USFRB,6,3,3,4,1,6937,9/18/17 14:26,11093
A24Q1UMV25TBV2,caus_thomas_all_dis_v1,3TPWUS5F892KZH5ERX5ML8111WEWCJ,6,2,2,5,1,101716,9/18/17 14:26,11094
A3PG7IRVJU3BKR,caus_thomas_all_dis_v1,3ND9UOO81K3D2LZK4AYLORROV5TLWP,2,4,4,1,4,6455,9/18/17 14:26,11095
A2EKYWX5XNXSAG,caus_thomas_all_dis_v1,3ZWFC4W1UU8MUX82J5LH6FEN6USFRB,6,4,4,6,6,4917,9/18/17 14:26,11096
A24Q1UMV25TBV2,caus_thomas_all_dis_v1,3TPWUS5F892KZH5ERX5ML8111WEWCJ,4,3,3,7,6,4425,9/18/17 14:27,11097
AMNMG3DCCC166,caus_thomas_all_dis_v1,3G5W44VEU7J6LTR245I2NOSLCHXGKH,8,1,1,2,1,9113,9/18/17 14:27,11098
A1KQTW3EZYXXRD,caus_thomas_all_dis_v1,38F5OAUN5NDWQAFT5HBB4JZ0LXB7H2,6,3,3,9,3,13509,9/18/17 14:27,11099
A1G17IJC53N6K3,caus_thomas_all_dis_v1,3IJXV6UZ1XK64OASKDR29CRFMMJIR4,6,0,0,2,10,82455,9/18/17 14:27,11100
A1XILS2KA5CZJQ,caus_thomas_all_dis_v1,3K4J6M3CXEU09GIGSE5DTAPP754AGX,8,2,2,3,7,12010,9/18/17 14:27,11101
A1PNQWE4UAI1P2,caus_thomas_all_dis_v1,33FBRBDW6O099G9WTUPG7SYFJPCC8L,4,4,4,4,7,17132,9/18/17 14:27,11102
A3JLLYFBSJ6676,caus_thomas_all_dis_v1,3OLQQLKKNSQDQVPTGPS2M67WKCJEJ0,0,0,0,5,1,25669,9/18/17 14:27,11103
A24Q1UMV25TBV2,caus_thomas_all_dis_v1,3TPWUS5F892KZH5ERX5ML8111WEWCJ,0,4,4,10,9,7925,9/18/17 14:27,11104
A1ZPYSX30BDIVW,caus_thomas_all_dis_v1,3OUYGIZWR7ZALGDX3VY7YDR4ZAFP0P,8,1,1,4,5,18856,9/18/17 14:27,11105
AMNMG3DCCC166,caus_thomas_all_dis_v1,3G5W44VEU7J6LTR245I2NOSLCHXGKH,4,2,2,4,2,8019,9/18/17 14:27,11106
A1KQTW3EZYXXRD,caus_thomas_all_dis_v1,38F5OAUN5NDWQAFT5HBB4JZ0LXB7H2,8,4,4,10,9,8856,9/18/17 14:27,11107
 A1DJMP2Z8U322S,caus_thomas_all_dis_v1,3CFVK00FWLMF86KEDSLHQXSB730L6O,8,0,0,2,6,50202,9/18/17 14:27,11108
A1ZPYSX30BDIVW,caus_thomas_all_dis_v1,3OUYGIZWR7ZALGDX3VY7YDR4ZAFP0P,8,2,2,2,2,7729,9/18/17 14:27,11109
AMNMG3DCCC166,caus_thomas_all_dis_v1,3G5W44VEU7J6LTR245I2NOSLCHXGKH,4,3,3,8,4,6742,9/18/17 14:27,11110
A1XILS2KA5CZJQ,caus_thomas_all_dis_v1,3K4J6M3CXEU09GIGSE5DTAPP754AGX,8,3,3,8,6,13610,9/18/17 14:27,11111
A3JLLYFBSJ6676,caus_thomas_all_dis_v1,3OLQQLKKNSQDQVPTGPS2M67WKCJEJ0,0,1,1,1,9,14905,9/18/17 14:27,11112
A3VIQ9XPOYB8K6,caus_thomas_all_dis_v1,3NXNZ5RS1AY3B4XA75NJR21C2K297D,8,0,0,1,5,37942,9/18/17 14:27,11113
A1ZPYSX30BDIVW,caus_thomas_all_dis_v1,3OUYGIZWR7ZALGDX3VY7YDR4ZAFP0P,8,3,3,3,3,7153,9/18/17 14:27,11114
A15JP0TGZKLNIZ,caus_thomas_all_dis_v1,30IQTZXKAK7FUPFOPM8OSQD719NX0K,4,0,0,3,1,38892,9/18/17 14:27,11115
A1XILS2KA5CZJQ,caus_thomas_all_dis_v1,3K4J6M3CXEU09GIGSE5DTAPP754AGX,8,4,4,10,8,9001,9/18/17 14:27,11116
 A1DJMP2Z8U322S,caus_thomas_all_dis_v1,3CFVK00FWLMF86KEDSLHQXSB730L6O,8,1,1,6,8,15287,9/18/17 14:27,11117
A1ZPYSX30BDIVW,caus_thomas_all_dis_v1,3OUYGIZWR7ZALGDX3VY7YDR4ZAFP0P,8,4,4,7,8,7094,9/18/17 14:27,11118
A3VIQ9XPOYB8K6,caus_thomas_all_dis_v1,3NXNZ5RS1AY3B4XA75NJR21C2K297D,8,1,1,5,6,11219,9/18/17 14:27,11119
A8LN94NNLE8MU,caus_thomas_all_dis_v1,3SUWZRL0MYE120AMW6YDD22RY6Z6EM,4,0,0,8,7,36070,9/18/17 14:27,11120
A2UMPV8X9EJTHQ,caus_thomas_all_dis_v1,3OE22WJIGIPB1EQS1FRGNP5LKV5UQO,8,0,0,10,8,31102,9/18/17 14:27,11121
A3VIQ9XPOYB8K6,caus_thomas_all_dis_v1,3NXNZ5RS1AY3B4XA75NJR21C2K297D,8,2,2,10,4,5744,9/18/17 14:27,11122
AMNMG3DCCC166,caus_thomas_all_dis_v1,3G5W44VEU7J6LTR245I2NOSLCHXGKH,4,4,4,1,3,25096,9/18/17 14:27,11123
A2XUG3O61RBUKQ,caus_thomas_all_dis_v1,3MTMREQS4VJW628G7J9VFDBD1TTAWV,5,0,0,4,10,55228,9/18/17 14:27,11124
 A1DJMP2Z8U322S,caus_thomas_all_dis_v1,3CFVK00FWLMF86KEDSLHQXSB730L6O,8,2,2,9,3,14851,9/18/17 14:27,11125
A3VIQ9XPOYB8K6,caus_thomas_all_dis_v1,3NXNZ5RS1AY3B4XA75NJR21C2K297D,8,3,3,7,10,4878,9/18/17 14:27,11126
A3GLUDQZGEJL5G,caus_thomas_all_dis_v1,36H9ULYP62V5W9PPB0C84OSWWDXJFM,4,0,0,10,1,61052,9/18/17 14:27,11127
A15JP0TGZKLNIZ,caus_thomas_all_dis_v1,30IQTZXKAK7FUPFOPM8OSQD719NX0K,4,1,1,7,7,21793,9/18/17 14:27,11128
A3GLUDQZGEJL5G,caus_thomas_all_dis_v1,36H9ULYP62V5W9PPB0C84OSWWDXJFM,4,1,1,9,9,4210,9/18/17 14:27,11129
A2VX8B1CJXRN2,caus_thomas_all_dis_v1,3DOCMVPBTNFD3RTROMND50IM7ONNN0,1,3,3,4,6,80553,9/18/17 14:27,11130
 A1DJMP2Z8U322S,caus_thomas_all_dis_v1,3CFVK00FWLMF86KEDSLHQXSB730L6O,8,3,3,8,4,8109,9/18/17 14:27,11131
A2UMPV8X9EJTHQ,caus_thomas_all_dis_v1,3OE22WJIGIPB1EQS1FRGNP5LKV5UQO,4,1,1,4,6,15187,9/18/17 14:27,11132
A2XUG3O61RBUKQ,caus_thomas_all_dis_v1,3MTMREQS4VJW628G7J9VFDBD1TTAWV,8,1,1,10,7,18419,9/18/17 14:28,11133
AAPVJFYLS6D4D,caus_thomas_all_dis_v1,3PEIJLRY6TU82FG9IT19ZLMB2E2XWM,8,0,0,8,10,68997,9/18/17 14:28,11134
A3GLUDQZGEJL5G,caus_thomas_all_dis_v1,36H9ULYP62V5W9PPB0C84OSWWDXJFM,4,2,2,6,7,9659,9/18/17 14:28,11135
 A1DJMP2Z8U322S,caus_thomas_all_dis_v1,3CFVK00FWLMF86KEDSLHQXSB730L6O,8,4,4,7,2,9121,9/18/17 14:28,11136
A15JP0TGZKLNIZ,caus_thomas_all_dis_v1,30IQTZXKAK7FUPFOPM8OSQD719NX0K,4,2,2,8,4,13303,9/18/17 14:28,11137
A8LN94NNLE8MU,caus_thomas_all_dis_v1,3SUWZRL0MYE120AMW6YDD22RY6Z6EM,4,1,1,1,2,28398,9/18/17 14:28,11138
A3K6NI3B84FUVP,caus_thomas_all_dis_v1,3I02618YA07Q12PD12CRNKFBFZIPUR,8,0,0,5,6,75251,9/18/17 14:28,11139
A1G17IJC53N6K3,caus_thomas_all_dis_v1,3IJXV6UZ1XK64OASKDR29CRFMMJIR4,4,1,1,7,2,66195,9/18/17 14:28,11140
A3GLUDQZGEJL5G,caus_thomas_all_dis_v1,36H9ULYP62V5W9PPB0C84OSWWDXJFM,5,3,3,8,2,3981,9/18/17 14:28,11141
A3GLUDQZGEJL5G,caus_thomas_all_dis_v1,36H9ULYP62V5W9PPB0C84OSWWDXJFM,5,4,4,3,3,2548,9/18/17 14:28,11142
A2UMPV8X9EJTHQ,caus_thomas_all_dis_v1,3OE22WJIGIPB1EQS1FRGNP5LKV5UQO,5,2,2,6,5,16801,9/18/17 14:28,11143
A8LN94NNLE8MU,caus_thomas_all_dis_v1,3SUWZRL0MYE120AMW6YDD22RY6Z6EM,6,2,2,6,3,9560,9/18/17 14:28,11144
A15JP0TGZKLNIZ,caus_thomas_all_dis_v1,30IQTZXKAK7FUPFOPM8OSQD719NX0K,4,3,3,1,6,12162,9/18/17 14:28,11145
AAPVJFYLS6D4D,caus_thomas_all_dis_v1,3PEIJLRY6TU82FG9IT19ZLMB2E2XWM,8,1,1,4,6,15657,9/18/17 14:28,11146
A3ESI56OAGBXGI,caus_thomas_all_dis_v1,3TPWUS5F892KZH5ERX5ML8111WFCW0,8,0,0,7,5,39606,9/18/17 14:28,11147
A2UMPV8X9EJTHQ,caus_thomas_all_dis_v1,3OE22WJIGIPB1EQS1FRGNP5LKV5UQO,6,3,3,8,1,7960,9/18/17 14:28,11148
A15JP0TGZKLNIZ,caus_thomas_all_dis_v1,30IQTZXKAK7FUPFOPM8OSQD719NX0K,4,4,4,2,5,4528,9/18/17 14:28,11149
A3JLLYFBSJ6676,caus_thomas_all_dis_v1,3OLQQLKKNSQDQVPTGPS2M67WKCJEJ0,8,0,0,5,4,21585,9/18/17 14:28,11150
A2XUG3O61RBUKQ,caus_thomas_all_dis_v1,3MTMREQS4VJW628G7J9VFDBD1TTAWV,7,2,2,6,2,18971,9/18/17 14:28,11151
A2VX8B1CJXRN2,caus_thomas_all_dis_v1,3DOCMVPBTNFD3RTROMND50IM7ONNN0,5,4,4,3,5,29932,9/18/17 14:28,11152
A2JP9IKRHNLRPI,caus_thomas_all_dis_v1,35USIKEBNRH5W6NZP51W3PW0CYZ6NA,0,0,0,1,10,34010,9/18/17 14:28,11153
A3VD8Q04OOZ7W0,caus_thomas_all_dis_v1,3C2NJ6JBKAIHE54Y23PTDCFOWTYN2B,8,0,0,9,7,43027,9/18/17 14:28,11154
A8LN94NNLE8MU,caus_thomas_all_dis_v1,3SUWZRL0MYE120AMW6YDD22RY6Z6EM,8,3,3,2,10,11227,9/18/17 14:28,11155
A3VIQ9XPOYB8K6,caus_thomas_all_dis_v1,3NXNZ5RS1AY3B4XA75NJR21C2K297D,8,4,4,9,3,42796,9/18/17 14:28,11156
A1G17IJC53N6K3,caus_thomas_all_dis_v1,3IJXV6UZ1XK64OASKDR29CRFMMJIR4,5,2,2,9,3,21441,9/18/17 14:28,11157
A2UMPV8X9EJTHQ,caus_thomas_all_dis_v1,3OE22WJIGIPB1EQS1FRGNP5LKV5UQO,4,4,4,7,9,8045,9/18/17 14:28,11158
AAPVJFYLS6D4D,caus_thomas_all_dis_v1,3PEIJLRY6TU82FG9IT19ZLMB2E2XWM,8,2,2,5,2,11738,9/18/17 14:28,11159
A3JLLYFBSJ6676,caus_thomas_all_dis_v1,3OLQQLKKNSQDQVPTGPS2M67WKCJEJ0,8,1,1,3,6,9960,9/18/17 14:28,11160
A2XUG3O61RBUKQ,caus_thomas_all_dis_v1,3MTMREQS4VJW628G7J9VFDBD1TTAWV,7,3,3,9,9,10788,9/18/17 14:28,11161
A2JP9IKRHNLRPI,caus_thomas_all_dis_v1,35USIKEBNRH5W6NZP51W3PW0CYZ6NA,8,1,1,4,1,9040,9/18/17 14:28,11162
A8LN94NNLE8MU,caus_thomas_all_dis_v1,3SUWZRL0MYE120AMW6YDD22RY6Z6EM,5,4,4,7,4,9452,9/18/17 14:28,11163
A3JLLYFBSJ6676,caus_thomas_all_dis_v1,3OLQQLKKNSQDQVPTGPS2M67WKCJEJ0,8,2,2,1,7,6446,9/18/17 14:28,11164
A3K6NI3B84FUVP,caus_thomas_all_dis_v1,3I02618YA07Q12PD12CRNKFBFZIPUR,8,1,1,9,2,32816,9/18/17 14:28,11165
A2JP9IKRHNLRPI,caus_thomas_all_dis_v1,35USIKEBNRH5W6NZP51W3PW0CYZ6NA,8,2,2,9,8,6264,9/18/17 14:28,11166
A2XUG3O61RBUKQ,caus_thomas_all_dis_v1,3MTMREQS4VJW628G7J9VFDBD1TTAWV,7,4,4,7,6,8973,9/18/17 14:28,11167
AAPVJFYLS6D4D,caus_thomas_all_dis_v1,3PEIJLRY6TU82FG9IT19ZLMB2E2XWM,8,3,3,3,5,12607,9/18/17 14:28,11168
A2JP9IKRHNLRPI,caus_thomas_all_dis_v1,35USIKEBNRH5W6NZP51W3PW0CYZ6NA,8,3,3,10,5,3875,9/18/17 14:28,11169
A3JLLYFBSJ6676,caus_thomas_all_dis_v1,3OLQQLKKNSQDQVPTGPS2M67WKCJEJ0,8,3,3,7,9,7002,9/18/17 14:28,11170
A3ESI56OAGBXGI,caus_thomas_all_dis_v1,3TPWUS5F892KZH5ERX5ML8111WFCW0,8,1,1,4,9,28762,9/18/17 14:28,11171
A3JLLYFBSJ6676,caus_thomas_all_dis_v1,3OLQQLKKNSQDQVPTGPS2M67WKCJEJ0,8,4,4,6,5,3423,9/18/17 14:28,11172
A1G17IJC53N6K3,caus_thomas_all_dis_v1,3IJXV6UZ1XK64OASKDR29CRFMMJIR4,5,3,3,3,9,22337,9/18/17 14:28,11173
A3VD8Q04OOZ7W0,caus_thomas_all_dis_v1,3C2NJ6JBKAIHE54Y23PTDCFOWTYN2B,8,1,1,10,8,27826,9/18/17 14:29,11174
AAPVJFYLS6D4D,caus_thomas_all_dis_v1,3PEIJLRY6TU82FG9IT19ZLMB2E2XWM,8,4,4,9,1,11677,9/18/17 14:29,11175
A3ESI56OAGBXGI,caus_thomas_all_dis_v1,3TPWUS5F892KZH5ERX5ML8111WFCW0,8,2,2,1,6,7493,9/18/17 14:29,11176
A3K6NI3B84FUVP,caus_thomas_all_dis_v1,3I02618YA07Q12PD12CRNKFBFZIPUR,8,2,2,3,3,17591,9/18/17 14:29,11177
A2JP9IKRHNLRPI,caus_thomas_all_dis_v1,35USIKEBNRH5W6NZP51W3PW0CYZ6NA,5,4,4,6,7,13188,9/18/17 14:29,11178
A37WEOO4QTXDMU,caus_thomas_all_dis_v1,3V0Z7YWSIY1UMAD74UBKNT91IW0V20,8,0,0,4,1,41332,9/18/17 14:29,11179
A1G17IJC53N6K3,caus_thomas_all_dis_v1,3IJXV6UZ1XK64OASKDR29CRFMMJIR4,3,4,4,10,6,9769,9/18/17 14:29,11180
A3ESI56OAGBXGI,caus_thomas_all_dis_v1,3TPWUS5F892KZH5ERX5ML8111WFCW0,8,3,3,8,7,11687,9/18/17 14:29,11181
A37WEOO4QTXDMU,caus_thomas_all_dis_v1,3V0Z7YWSIY1UMAD74UBKNT91IW0V20,8,1,1,8,7,14665,9/18/17 14:29,11182
A3K6NI3B84FUVP,caus_thomas_all_dis_v1,3I02618YA07Q12PD12CRNKFBFZIPUR,8,3,3,7,8,15444,9/18/17 14:29,11183
A3VD8Q04OOZ7W0,caus_thomas_all_dis_v1,3C2NJ6JBKAIHE54Y23PTDCFOWTYN2B,8,2,2,4,4,19209,9/18/17 14:29,11184
A1M1TSMJB12177,caus_thomas_all_dis_v1,3SB5N7Y3O35483KY0C8K44DCYJT0GX,8,0,0,10,4,21807,9/18/17 14:29,11185
A37WEOO4QTXDMU,caus_thomas_all_dis_v1,3V0Z7YWSIY1UMAD74UBKNT91IW0V20,8,2,2,5,9,9966,9/18/17 14:29,11186
A3VD8Q04OOZ7W0,caus_thomas_all_dis_v1,3C2NJ6JBKAIHE54Y23PTDCFOWTYN2B,8,3,3,8,6,10969,9/18/17 14:29,11187
AR48CQSNOPWZ7,caus_thomas_all_dis_v1,386CSBG1OZNQZ30R5XTD7JR5H9NQ6I,3,0,0,3,4,28350,9/18/17 14:29,11188
A3K6NI3B84FUVP,caus_thomas_all_dis_v1,3I02618YA07Q12PD12CRNKFBFZIPUR,8,4,4,2,9,14173,9/18/17 14:29,11189
A3ESI56OAGBXGI,caus_thomas_all_dis_v1,3TPWUS5F892KZH5ERX5ML8111WFCW0,8,4,4,6,8,18901,9/18/17 14:29,11190
A1M1TSMJB12177,caus_thomas_all_dis_v1,3SB5N7Y3O35483KY0C8K44DCYJT0GX,8,1,1,1,5,9106,9/18/17 14:29,11191
A37WEOO4QTXDMU,caus_thomas_all_dis_v1,3V0Z7YWSIY1UMAD74UBKNT91IW0V20,8,3,3,2,10,7989,9/18/17 14:29,11192
ANFWGSQ8BQRZ,caus_thomas_all_dis_v1,3I02618YA07Q12PD12CRNKFBFZJPUS,8,0,0,4,1,64694,9/18/17 14:29,11193
A1M1TSMJB12177,caus_thomas_all_dis_v1,3SB5N7Y3O35483KY0C8K44DCYJT0GX,8,2,2,9,2,4576,9/18/17 14:29,11194
A3VD8Q04OOZ7W0,caus_thomas_all_dis_v1,3C2NJ6JBKAIHE54Y23PTDCFOWTYN2B,8,4,4,7,2,11948,9/18/17 14:29,11195
A37WEOO4QTXDMU,caus_thomas_all_dis_v1,3V0Z7YWSIY1UMAD74UBKNT91IW0V20,8,4,4,3,4,7220,9/18/17 14:29,11196
A3Q8YJFHPFWCN2,caus_thomas_all_dis_v1,33CUSNVVNND7XDJJCI9B562WTYS88C,8,0,0,6,1,32278,9/18/17 14:29,11197
A1A7KL0CEERE60,caus_thomas_all_dis_v1,3QILPRALQ5WS0K6NIKYUN3SRITQN8E,8,0,0,4,2,86515,9/18/17 14:30,11198
AR48CQSNOPWZ7,caus_thomas_all_dis_v1,386CSBG1OZNQZ30R5XTD7JR5H9NQ6I,8,1,1,6,9,25809,9/18/17 14:30,11199
A1M1TSMJB12177,caus_thomas_all_dis_v1,3SB5N7Y3O35483KY0C8K44DCYJT0GX,8,3,3,4,9,23468,9/18/17 14:30,11200
A1M1TSMJB12177,caus_thomas_all_dis_v1,3SB5N7Y3O35483KY0C8K44DCYJT0GX,8,4,4,5,6,3369,9/18/17 14:30,11201
ANFWGSQ8BQRZ,caus_thomas_all_dis_v1,3I02618YA07Q12PD12CRNKFBFZJPUS,7,1,1,10,10,29533,9/18/17 14:30,11202
AR48CQSNOPWZ7,caus_thomas_all_dis_v1,386CSBG1OZNQZ30R5XTD7JR5H9NQ6I,8,2,2,5,8,9186,9/18/17 14:30,11203
A3Q8YJFHPFWCN2,caus_thomas_all_dis_v1,33CUSNVVNND7XDJJCI9B562WTYS88C,8,1,1,10,2,18395,9/18/17 14:30,11204
AR48CQSNOPWZ7,caus_thomas_all_dis_v1,386CSBG1OZNQZ30R5XTD7JR5H9NQ6I,8,3,3,2,5,9293,9/18/17 14:30,11205
A1V6CSBT0WW2OF,caus_thomas_all_dis_v1,3PJ71Z61R43P0II8IP6AQSAZZY291G,6,0,0,9,6,43093,9/18/17 14:30,11206
A26OC3BUCY2US6,caus_thomas_all_dis_v1,3QAVNHZ3EM5GV8WH352T62UX3MRAL4,8,0,0,9,7,28896,9/18/17 14:30,11207
A3Q8YJFHPFWCN2,caus_thomas_all_dis_v1,33CUSNVVNND7XDJJCI9B562WTYS88C,8,2,2,2,8,15941,9/18/17 14:30,11208
ANFWGSQ8BQRZ,caus_thomas_all_dis_v1,3I02618YA07Q12PD12CRNKFBFZJPUS,8,2,2,7,8,21357,9/18/17 14:30,11209
AQHQVVPC61JD9,caus_thomas_all_dis_v1,39GAF6DQWR1NXPVBLQB6IAZWQQMV1J,8,0,0,1,3,91720,9/18/17 14:30,11210
AR48CQSNOPWZ7,caus_thomas_all_dis_v1,386CSBG1OZNQZ30R5XTD7JR5H9NQ6I,8,4,4,10,2,12630,9/18/17 14:30,11211
AQERSNMMM4VR0,caus_thomas_all_dis_v1,3VE8AYVF8MYGCST6KWFHFYJIG258FT,5,0,0,2,10,38771,9/18/17 14:30,11212
A1V6CSBT0WW2OF,caus_thomas_all_dis_v1,3PJ71Z61R43P0II8IP6AQSAZZY291G,6,1,1,7,9,18126,9/18/17 14:30,11213
