subject,rating,trial_ind,green_prob,blue_prob,rt,stamp,,,,,,
1,0,0,8,7,123860,9/15/17 14:00,,,,,,
1,0,1,5,1,18051,9/15/17 14:01,,,,,,
1,0,2,1,9,9792,9/15/17 14:01,,,,,,
1,0,3,7,4,7878,9/15/17 14:01,,,,,,
1,-1,4,4,5,9344,9/15/17 14:01,,,,,,
2,4,0,1,6,66707,9/15/17 17:16,,,,,,
2,5,1,4,10,7906,9/15/17 17:17,,,,,,
2,5,2,8,3,3306,9/15/17 17:17,,,,,,
2,4,3,3,9,3661,9/15/17 17:17,,,,,,
2,4,4,2,4,5718,9/15/17 17:17,,,,,,
3,2,0,4,6,32267,9/15/17 14:24,,,,,,
3,2,1,8,4,14994,9/15/17 14:25,,,,,,
3,5,2,3,10,15204,9/15/17 14:25,,,,,,
3,3,3,5,9,10481,9/15/17 14:25,,,,,,
3,6,4,9,5,11594,9/15/17 14:25,,,,,,
4,0,0,7,7,24275,9/15/17 15:07,,,,,,
4,0,1,8,6,17581,9/15/17 15:08,,,,,,
4,1,2,5,9,13850,9/15/17 15:08,,,,,,
4,7,3,4,10,9842,9/15/17 15:08,,,,,,
4,1,4,6,1,9167,9/15/17 15:08,,,,,,
5,0,0,4,1,29342,9/15/17 16:31,,,,,,
5,0,1,5,4,16472,9/15/17 16:31,,,,,,
5,0,2,3,8,10645,9/15/17 16:31,,,,,,
5,0,3,9,9,9840,9/15/17 16:31,,,,,,
5,0,4,10,3,4829,9/15/17 16:31,,,,,,
6,0,0,3,7,139046,9/15/17 14:15,,,,,,
6,0,1,9,9,61746,9/15/17 14:16,,,,,,
6,0,2,4,2,18443,9/15/17 14:16,,,,,,
6,0,3,7,10,32342,9/15/17 14:17,,,,,,
6,0,4,5,6,70944,9/15/17 14:18,,,,,,
7,8,0,5,10,207336,9/15/17 14:46,,,,,,
7,8,1,1,5,14409,9/15/17 14:46,,,,,,
7,8,2,9,8,207938,9/15/17 14:50,,,,,,
7,8,3,8,7,9565,9/15/17 14:50,,,,,,
7,8,4,6,9,7602,9/15/17 14:50,,,,,,
8,5,0,10,8,34817,9/15/17 15:22,,,,,,
8,1,1,2,7,14897,9/15/17 15:22,,,,,,
8,8,2,1,3,7865,9/15/17 15:22,,,,,,
8,4,3,5,9,8465,9/15/17 15:23,,,,,,
8,3,4,7,6,12590,9/15/17 15:23,,,,,,
9,8,0,10,1,95876,9/15/17 13:39,,,,,,
9,8,1,3,7,40581,9/15/17 13:40,,,,,,
9,5,2,2,2,51875,9/15/17 13:41,,,,,,
9,5,3,7,10,17563,9/15/17 13:41,,,,,,
9,0,4,9,4,28157,9/15/17 13:42,,,,,,
10,4,0,4,7,24969,9/15/17 13:50,,,,,,
10,4,1,1,8,13206,9/15/17 13:50,,,,,,
10,4,2,8,4,11084,9/15/17 13:51,,,,,,
10,4,3,9,5,6368,9/15/17 13:51,,,,,,
10,4,4,7,3,5227,9/15/17 13:51,,,,,,
11,8,0,6,7,44969,9/15/17 17:21,,,,,,
11,8,1,10,5,24782,9/15/17 17:21,,,,,,
11,8,2,1,10,9555,9/15/17 17:21,,,,,,
11,8,3,4,6,6823,9/15/17 17:22,,,,,,
11,8,4,8,3,11313,9/15/17 17:22,,,,,,
12,2,0,2,1,42017,9/15/17 15:50,,,,,,
12,8,1,9,10,19780,9/15/17 15:51,,,,,,
12,4,2,5,6,15553,9/15/17 15:51,,,,,,
12,5,3,3,4,12813,9/15/17 15:51,,,,,,
12,2,4,6,3,10810,9/15/17 15:51,,,,,,
13,0,0,8,6,19436,9/15/17 17:56,,,,,,
13,8,1,2,3,18334,9/15/17 17:56,,,,,,
13,8,2,1,9,9826,9/15/17 17:56,,,,,,
13,8,3,4,2,8898,9/15/17 17:56,,,,,,
13,8,4,6,1,9922,9/15/17 17:56,,,,,,
14,8,0,6,10,54932,9/15/17 14:22,,,,,,
14,1,1,1,1,23221,9/15/17 14:22,,,,,,
14,3,2,5,5,25694,9/15/17 14:23,,,,,,
14,0,3,3,9,5972,9/15/17 14:23,,,,,,
14,0,4,4,2,7271,9/15/17 14:23,,,,,,
15,5,0,9,4,8692,9/15/17 15:54,,,,,,
15,6,1,10,6,6323,9/15/17 15:54,,,,,,
15,4,2,3,7,4252,9/15/17 15:54,,,,,,
15,5,3,5,5,4367,9/15/17 15:54,,,,,,
15,6,4,7,3,152055,9/15/17 15:57,,,,,,
16,4,0,2,4,50206,9/15/17 13:51,,,,,,
16,5,1,6,3,27290,9/15/17 13:51,,,,,,
16,4,2,1,2,46031,9/15/17 13:52,,,,,,
16,4,3,3,6,7376,9/15/17 13:52,,,,,,
16,5,4,10,7,5308,9/15/17 13:52,,,,,,
17,4,0,3,4,73850,9/15/17 13:38,,,,,,
17,4,1,6,6,16434,9/15/17 13:38,,,,,,
17,4,2,5,2,12115,9/15/17 13:38,,,,,,
17,4,3,8,1,12179,9/15/17 13:38,,,,,,
17,4,4,4,5,8967,9/15/17 13:39,,,,,,
18,8,0,2,7,75217,9/15/17 16:26,,,,,,
18,8,1,9,2,24112,9/15/17 16:27,,,,,,
18,8,2,4,5,30713,9/15/17 16:27,,,,,,
18,8,3,5,3,23108,9/15/17 16:28,,,,,,
18,8,4,7,6,30502,9/15/17 16:28,,,,,,
19,0,0,1,5,68625,9/15/17 15:53,,,,,,
19,0,1,8,3,44350,9/15/17 15:54,,,,,,
19,3,2,3,9,42806,9/15/17 15:54,,,,,,
19,0,3,7,2,19881,9/15/17 15:55,,,,,,
19,1,4,4,6,22168,9/15/17 15:55,,,,,,
20,8,0,1,6,20765,9/15/17 15:51,,,,,,
20,8,1,7,2,12282,9/15/17 15:51,,,,,,
20,8,2,8,7,4165,9/15/17 15:51,,,,,,
20,8,3,3,1,7297,9/15/17 15:51,,,,,,
20,8,4,6,5,6811,9/15/17 15:52,,,,,,
21,4,0,8,7,106796,9/15/17 14:34,,,,,,
21,0,1,10,3,10049,9/15/17 14:34,,,,,,
21,4,2,6,9,15727,9/15/17 14:34,,,,,,
21,3,3,4,4,6160,9/15/17 14:35,,,,,,
22,0,0,2,5,27807,9/15/17 17:14,,,,,,
22,8,1,10,6,27775,9/15/17 17:15,,,,,,
22,2,2,3,9,11663,9/15/17 17:15,,,,,,
22,2,3,4,7,14831,9/15/17 17:15,,,,,,
22,5,4,5,3,10511,9/15/17 17:15,,,,,,
23,8,0,2,2,66739,9/15/17 17:15,,,,,,
23,8,1,10,4,18291,9/15/17 17:15,,,,,,
23,8,2,9,8,11938,9/15/17 17:15,,,,,,
23,8,3,3,3,9600,9/15/17 17:15,,,,,,
23,8,4,8,7,9723,9/15/17 17:15,,,,,,
24,0,0,3,7,44394,9/15/17 14:50,,,,,,
24,8,1,8,9,27509,9/15/17 14:51,,,,,,
24,8,2,10,2,37936,9/15/17 14:51,,,,,,
24,0,3,1,4,52238,9/15/17 14:52,,,,,,
24,0,4,2,1,15361,9/15/17 14:52,,,,,,
25,0,0,7,3,52509,9/15/17 13:48,,,,,,
25,0,1,4,4,25960,9/15/17 13:48,,,,,,
25,0,2,2,8,25691,9/15/17 13:49,,,,,,
25,0,3,1,2,16705,9/15/17 13:49,,,,,,
25,0,4,6,7,11450,9/15/17 13:49,,,,,,
26,1,0,6,1,54909,9/15/17 17:19,,,,,,
26,0,1,10,6,30104,9/15/17 17:20,,,,,,
26,1,2,3,5,28185,9/15/17 17:20,,,,,,
26,0,3,8,8,14747,9/15/17 17:21,,,,,,
26,0,4,1,3,15015,9/15/17 17:21,,,,,,
27,4,0,1,6,37920,9/15/17 16:26,,,,,,
27,8,1,6,8,11273,9/15/17 16:26,,,,,,
27,8,2,4,2,9776,9/15/17 16:26,,,,,,
27,4,3,9,10,11629,9/15/17 16:26,,,,,,
27,5,4,7,9,2190,9/15/17 16:26,,,,,,
28,7,0,4,5,34507,9/15/17 15:21,,,,,,
28,7,1,9,10,13372,9/15/17 15:22,,,,,,
28,1,2,7,2,15473,9/15/17 15:22,,,,,,
28,7,3,2,3,10477,9/15/17 15:22,,,,,,
28,7,4,8,7,11741,9/15/17 15:22,,,,,,
29,0,0,8,4,30186,9/15/17 13:53,,,,,,
29,0,1,1,2,15108,9/15/17 13:53,,,,,,
29,0,2,5,7,9079,9/15/17 13:53,,,,,,
29,0,3,9,6,9172,9/15/17 13:53,,,,,,
29,8,4,2,10,11170,9/15/17 13:53,,,,,,
30,4,0,7,8,45293,9/15/17 15:32,,,,,,
30,2,1,9,9,19567,9/15/17 15:33,,,,,,
30,5,2,4,5,11645,9/15/17 15:33,,,,,,
30,0,3,10,3,13439,9/15/17 15:33,,,,,,
30,5,4,3,6,11309,9/15/17 15:33,,,,,,
31,5,0,2,9,47487,9/15/17 16:40,,,,,,
31,8,1,7,10,16477,9/15/17 16:40,,,,,,
31,1,2,5,6,9993,9/15/17 16:40,,,,,,
31,1,3,8,7,18523,9/15/17 16:41,,,,,,
31,0,4,4,2,9655,9/15/17 16:41,,,,,,
32,6,0,1,3,22147,9/15/17 13:47,,,,,,
32,3,1,7,4,7917,9/15/17 13:48,,,,,,
32,2,2,8,9,7761,9/15/17 13:48,,,,,,
32,6,3,3,8,7062,9/15/17 13:48,,,,,,
32,7,4,2,2,4237,9/15/17 13:48,,,,,,
33,4,0,1,2,35331,9/15/17 15:17,,,,,,
33,3,1,3,5,32401,9/15/17 15:18,,,,,,
33,8,2,5,10,21331,9/15/17 15:18,,,,,,
33,2,3,8,6,11741,9/15/17 15:19,,,,,,
33,0,4,6,3,8927,9/15/17 15:19,,,,,,
34,2,0,2,6,44922,9/15/17 16:22,,,,,,
34,2,1,5,4,16960,9/15/17 16:23,,,,,,
34,0,2,10,2,12670,9/15/17 16:23,,,,,,
34,1,3,3,5,10796,9/15/17 16:23,,,,,,
34,1,4,7,7,11102,9/15/17 16:23,,,,,,
35,6,0,3,3,26758,9/15/17 15:29,,,,,,
35,5,1,2,1,8820,9/15/17 15:29,,,,,,
35,4,2,5,5,5669,9/15/17 15:29,,,,,,
35,8,3,4,10,4412,9/15/17 15:29,,,,,,
35,0,4,10,8,5564,9/15/17 15:29,,,,,,
36,3,0,4,6,32211,9/15/17 16:41,,,,,,
36,2,1,6,3,12274,9/15/17 16:41,,,,,,
36,5,2,8,9,10540,9/15/17 16:42,,,,,,
36,0,3,10,10,11826,9/15/17 16:42,,,,,,
36,1,4,7,1,10627,9/15/17 16:42,,,,,,
37,4,0,7,7,134806,9/15/17 13:51,,,,,,
37,6,1,3,1,49832,9/15/17 13:52,,,,,,
37,6,2,9,2,34659,9/15/17 13:52,,,,,,
37,6,3,8,4,10970,9/15/17 13:53,,,,,,
37,2,4,10,5,10686,9/15/17 13:53,,,,,,
38,4,0,5,9,49943,9/15/17 13:38,,,,,,
38,4,1,10,6,17477,9/15/17 13:38,,,,,,
38,4,2,3,2,11739,9/15/17 13:39,,,,,,
38,4,3,6,10,8110,9/15/17 13:39,,,,,,
38,4,4,9,1,4936,9/15/17 13:39,,,,,,
39,1,0,1,2,21517,9/15/17 17:14,,,,,,
39,6,1,10,7,22882,9/15/17 17:15,,,,,,
39,5,2,2,3,17554,9/15/17 17:15,,,,,,
39,6,3,5,6,12631,9/15/17 17:15,,,,,,
39,1,4,6,1,8933,9/15/17 17:16,,,,,,
40,5,0,2,5,22509,9/15/17 16:32,,,,,,
40,8,1,9,3,3496,9/15/17 16:32,,,,,,
40,5,2,3,2,2946,9/15/17 16:32,,,,,,
40,8,3,8,9,3210,9/15/17 16:33,,,,,,
40,5,4,7,8,3178,9/15/17 16:33,,,,,,
41,8,0,3,10,838148,9/15/17 16:44,,,,,,
41,4,1,8,8,47006,9/15/17 16:45,,,,,,
41,0,2,10,7,72074,9/15/17 16:46,,,,,,
41,4,3,5,4,11461,9/15/17 16:46,,,,,,
41,4,4,7,5,11987,9/15/17 16:46,,,,,,
42,2,0,2,5,61912,9/15/17 16:23,,,,,,
42,2,1,5,8,38911,9/15/17 16:23,,,,,,
42,2,2,3,9,16422,9/15/17 16:24,,,,,,
42,8,3,6,10,23914,9/15/17 16:24,,,,,,
42,0,4,10,3,15205,9/15/17 16:24,,,,,,
43,4,0,8,5,39244,9/15/17 14:46,,,,,,
43,4,1,5,3,20914,9/15/17 14:46,,,,,,
43,4,2,4,2,21476,9/15/17 14:47,,,,,,
43,5,3,3,6,15056,9/15/17 14:47,,,,,,
43,3,4,9,1,5942,9/15/17 14:47,,,,,,
44,4,0,3,7,73528,9/15/17 16:11,,,,,,
44,8,1,7,10,23807,9/15/17 16:11,,,,,,
44,3,2,1,2,24377,9/15/17 16:11,,,,,,
44,2,3,2,9,21904,9/15/17 16:12,,,,,,
44,4,4,5,8,14654,9/15/17 16:12,,,,,,
45,6,0,10,6,40769,9/15/17 14:42,,,,,,
45,4,1,4,4,30193,9/15/17 14:42,,,,,,
45,3,2,3,5,18117,9/15/17 14:43,,,,,,
45,6,3,1,8,15478,9/15/17 14:43,,,,,,
45,4,4,6,7,10894,9/15/17 14:43,,,,,,
46,0,0,8,4,67370,9/15/17 15:11,,,,,,
46,0,1,9,9,24227,9/15/17 15:11,,,,,,
46,0,2,10,6,14473,9/15/17 15:11,,,,,,
46,0,3,3,8,28217,9/15/17 15:12,,,,,,
46,0,4,7,7,12247,9/15/17 15:12,,,,,,
47,5,0,1,2,6298,9/15/17 16:34,,,,,,
47,6,1,5,4,4174,9/15/17 16:35,,,,,,
47,3,2,3,3,4476,9/15/17 16:35,,,,,,
47,6,3,4,8,4602,9/15/17 16:35,,,,,,
47,4,4,10,7,2968,9/15/17 16:35,,,,,,
48,0,0,1,4,52098,9/15/17 15:26,,,,,,
48,0,1,9,8,19359,9/15/17 15:26,,,,,,
48,0,2,4,3,15210,9/15/17 15:26,,,,,,
48,0,3,2,1,13070,9/15/17 15:26,,,,,,
48,0,4,10,10,8619,9/15/17 15:27,,,,,,
49,2,0,9,7,36202,9/15/17 15:01,,,,,,
49,8,1,4,10,18984,9/15/17 15:01,,,,,,
49,7,2,5,9,17409,9/15/17 15:01,,,,,,
49,0,3,10,1,10206,9/15/17 15:01,,,,,,
49,2,4,8,2,10337,9/15/17 15:02,,,,,,
50,6,0,4,9,35760,9/15/17 15:56,,,,,,
50,8,1,5,10,19748,9/15/17 15:56,,,,,,
50,3,2,1,5,9348,9/15/17 15:57,,,,,,
50,1,3,3,1,7051,9/15/17 15:57,,,,,,
50,1,4,9,2,5945,9/15/17 15:57,,,,,,
51,6,0,3,8,21936,9/15/17 14:46,,,,,,
51,1,1,8,3,10495,9/15/17 14:46,,,,,,
51,5,2,4,7,12495,9/15/17 14:46,,,,,,
51,3,3,7,4,6402,9/15/17 14:46,,,,,,
51,8,4,2,10,7705,9/15/17 14:47,,,,,,
52,8,0,8,10,41115,9/15/17 14:57,,,,,,
52,2,1,6,6,19060,9/15/17 14:57,,,,,,
52,1,2,9,4,15021,9/15/17 14:58,,,,,,
52,4,3,5,9,13450,9/15/17 14:58,,,,,,
52,6,4,1,8,11395,9/15/17 14:58,,,,,,
53,0,0,8,4,84637,9/15/17 16:50,,,,,,
53,0,1,1,7,32368,9/15/17 16:50,,,,,,
53,0,2,10,1,20694,9/15/17 16:51,,,,,,
53,0,3,7,3,33407,9/15/17 16:51,,,,,,
53,0,4,3,9,5344,9/15/17 16:52,,,,,,
54,8,0,8,7,60868,9/15/17 17:04,,,,,,
54,8,1,3,1,35464,9/15/17 17:05,,,,,,
54,0,2,10,5,27067,9/15/17 17:05,,,,,,
54,8,3,7,6,22557,9/15/17 17:06,,,,,,
54,8,4,2,4,20480,9/15/17 17:06,,,,,,
55,1,0,2,6,57131,9/15/17 16:19,,,,,,
55,1,1,3,2,31537,9/15/17 16:20,,,,,,
55,1,2,9,9,17059,9/15/17 16:20,,,,,,
55,3,3,5,10,45282,9/15/17 16:21,,,,,,
55,1,4,4,3,10548,9/15/17 16:21,,,,,,
56,4,0,4,3,65169,9/15/17 13:39,,,,,,
56,4,1,5,1,55905,9/15/17 13:40,,,,,,
56,4,2,2,2,14444,9/15/17 13:41,,,,,,
56,4,3,7,8,12554,9/15/17 13:41,,,,,,
56,4,4,8,10,6877,9/15/17 13:41,,,,,,
57,4,0,7,3,31443,9/15/17 13:59,,,,,,
57,7,1,1,8,24419,9/15/17 13:59,,,,,,
57,4,2,2,2,12832,9/15/17 14:00,,,,,,
57,0,3,10,5,15135,9/15/17 14:00,,,,,,
57,8,4,3,10,6414,9/15/17 14:00,,,,,,
58,1,0,1,7,30210,9/15/17 15:30,,,,,,
58,3,1,9,2,8048,9/15/17 15:31,,,,,,
58,3,2,3,10,7626,9/15/17 15:31,,,,,,
58,2,3,2,5,6478,9/15/17 15:31,,,,,,
58,4,4,4,6,9459,9/15/17 15:31,,,,,,
59,4,0,4,6,31288,9/15/17 13:53,,,,,,
59,4,1,6,8,17208,9/15/17 13:53,,,,,,
59,5,2,7,9,8900,9/15/17 13:53,,,,,,
59,2,3,8,4,6286,9/15/17 13:53,,,,,,
59,1,4,9,3,9674,9/15/17 13:54,,,,,,
60,5,0,6,6,33136,9/15/17 17:36,,,,,,
60,3,1,10,4,12587,9/15/17 17:36,,,,,,
60,5,2,1,2,10467,9/15/17 17:37,,,,,,
60,5,3,5,8,8618,9/15/17 17:37,,,,,,
60,5,4,7,5,7625,9/15/17 17:37,,,,,,
61,6,0,8,2,39747,9/15/17 14:45,,,,,,
61,1,1,3,9,14241,9/15/17 14:46,,,,,,
61,8,2,10,3,11016,9/15/17 14:46,,,,,,
61,2,3,4,7,13636,9/15/17 14:46,,,,,,
61,0,4,6,10,10683,9/15/17 14:46,,,,,,
62,0,0,3,7,47564,9/15/17 15:44,,,,,,
62,0,1,6,10,29716,9/15/17 15:44,,,,,,
62,0,2,10,3,9938,9/15/17 15:45,,,,,,
62,0,3,5,8,9692,9/15/17 15:45,,,,,,
62,0,4,1,4,5938,9/15/17 15:45,,,,,,
63,6,0,4,5,30058,9/15/17 17:40,,,,,,
63,2,1,5,9,15887,9/15/17 17:40,,,,,,
63,8,2,7,10,14137,9/15/17 17:41,,,,,,
63,0,3,6,1,8365,9/15/17 17:41,,,,,,
63,1,4,9,6,11632,9/15/17 17:41,,,,,,
64,3,0,5,7,40866,9/15/17 13:55,,,,,,
64,2,1,1,4,4650,9/15/17 13:55,,,,,,
64,3,2,2,10,3165,9/15/17 13:55,,,,,,
64,3,3,10,5,2188,9/15/17 13:55,,,,,,
64,3,4,8,2,1957,9/15/17 13:55,,,,,,
65,0,0,8,1,18432,9/15/17 14:45,,,,,,
65,0,1,1,3,7832,9/15/17 14:45,,,,,,
65,0,2,3,8,9905,9/15/17 14:46,,,,,,
65,0,3,2,5,4378,9/15/17 14:46,,,,,,
65,8,4,7,10,10238,9/15/17 14:46,,,,,,
66,7,0,1,6,71480,9/15/17 15:28,,,,,,
66,4,1,6,5,20539,9/15/17 15:29,,,,,,
66,5,2,4,7,14686,9/15/17 15:29,,,,,,
66,3,3,7,9,15499,9/15/17 15:29,,,,,,
66,5,4,3,4,18315,9/15/17 15:29,,,,,,
67,0,0,10,7,34490,9/15/17 13:46,,,,,,
67,4,1,6,6,15246,9/15/17 13:47,,,,,,
67,2,2,9,3,19754,9/15/17 13:47,,,,,,
67,5,3,3,9,13553,9/15/17 13:47,,,,,,
67,4,4,4,5,5755,9/15/17 13:47,,,,,,
68,7,0,8,4,186218,9/15/17 16:37,,,,,,
68,8,1,7,1,32383,9/15/17 16:38,,,,,,
68,8,2,1,5,31810,9/15/17 16:38,,,,,,
68,4,3,2,3,18130,9/15/17 16:39,,,,,,
68,0,4,10,10,15618,9/15/17 16:39,,,,,,
69,0,0,5,4,115348,9/15/17 16:54,,,,,,
69,0,1,9,1,39665,9/15/17 16:55,,,,,,
69,0,2,3,5,21652,9/15/17 16:55,,,,,,
69,8,3,4,10,53177,9/15/17 16:56,,,,,,
69,0,4,1,6,19640,9/15/17 16:57,,,,,,
70,2,0,6,3,54484,9/15/17 16:34,,,,,,
70,1,1,8,8,41040,9/15/17 16:35,,,,,,
70,0,2,2,1,22529,9/15/17 16:35,,,,,,
70,1,3,7,4,26571,9/15/17 16:36,,,,,,
70,8,4,1,7,14411,9/15/17 16:36,,,,,,
71,5,0,6,4,47403,9/15/17 14:13,,,,,,
71,6,1,8,2,40427,9/15/17 14:14,,,,,,
71,5,2,3,5,88413,9/15/17 14:16,,,,,,
71,6,3,1,6,6318,9/15/17 14:16,,,,,,
71,6,4,4,3,4638,9/15/17 14:16,,,,,,
72,4,0,8,6,18021,9/15/17 14:03,,,,,,
72,5,1,5,4,7522,9/15/17 14:03,,,,,,
72,0,2,10,9,3080,9/15/17 14:03,,,,,,
72,1,3,9,8,5297,9/15/17 14:03,,,,,,
72,5,4,4,7,3765,9/15/17 14:03,,,,,,
73,0,0,9,8,30683,9/15/17 16:11,,,,,,
73,0,1,5,3,14031,9/15/17 16:11,,,,,,
73,0,2,7,6,9775,9/15/17 16:11,,,,,,
73,0,3,3,4,7535,9/15/17 16:11,,,,,,
73,0,4,1,1,9356,9/15/17 16:11,,,,,,
74,5,0,7,8,24637,9/15/17 14:03,,,,,,
74,1,1,8,3,11932,9/15/17 14:04,,,,,,
74,0,2,10,4,7077,9/15/17 14:04,,,,,,
74,5,3,3,5,6308,9/15/17 14:04,,,,,,
74,5,4,4,6,10941,9/15/17 14:04,,,,,,
75,6,0,2,7,31810,9/15/17 14:30,,,,,,
75,6,1,7,4,12511,9/15/17 14:30,,,,,,
75,7,2,6,1,8974,9/15/17 14:30,,,,,,
75,5,3,3,5,7612,9/15/17 14:31,,,,,,
75,5,4,4,2,4898,9/15/17 14:31,,,,,,
76,0,0,7,3,31472,9/15/17 16:24,,,,,,
76,0,1,1,7,18642,9/15/17 16:24,,,,,,
76,0,2,3,1,14611,9/15/17 16:25,,,,,,
76,0,3,4,10,10970,9/15/17 16:25,,,,,,
76,0,4,9,5,3891,9/15/17 16:25,,,,,,
77,4,0,7,6,597032,9/15/17 16:57,,,,,,
77,1,1,10,5,12263,9/15/17 16:58,,,,,,
77,5,2,2,3,9121,9/15/17 16:58,,,,,,
77,4,3,6,7,13602,9/15/17 16:58,,,,,,
77,4,4,5,4,6558,9/15/17 16:58,,,,,,
78,4,0,10,10,24726,9/15/17 16:37,,,,,,
78,3,1,8,1,11333,9/15/17 16:37,,,,,,
78,5,2,3,9,8171,9/15/17 16:37,,,,,,
78,3,3,7,5,5350,9/15/17 16:37,,,,,,
78,2,4,5,2,5703,9/15/17 16:37,,,,,,
79,3,0,3,3,16488,9/15/17 14:29,,,,,,
79,4,1,1,7,7297,9/15/17 14:29,,,,,,
79,4,2,9,8,4467,9/15/17 14:29,,,,,,
79,4,3,7,6,3859,9/15/17 14:29,,,,,,
79,2,4,8,4,2553,9/15/17 14:29,,,,,,
80,1,0,9,3,29284,9/15/17 15:43,,,,,,
80,4,1,6,8,10730,9/15/17 15:43,,,,,,
80,8,2,2,10,6352,9/15/17 15:43,,,,,,
80,6,3,5,7,9952,9/15/17 15:44,,,,,,
80,0,4,10,5,9097,9/15/17 15:44,,,,,,
81,8,0,4,2,41801,9/15/17 14:47,,,,,,
81,8,1,9,3,10263,9/15/17 14:48,,,,,,
81,8,2,7,1,12025,9/15/17 14:48,,,,,,
81,8,3,8,10,10149,9/15/17 14:48,,,,,,
81,8,4,6,8,10549,9/15/17 14:48,,,,,,
82,4,0,6,4,24587,9/15/17 15:44,,,,,,
82,2,1,8,6,7682,9/15/17 15:44,,,,,,
82,2,2,7,8,6408,9/15/17 15:44,,,,,,
82,7,3,2,1,4863,9/15/17 15:44,,,,,,
82,1,4,5,7,4405,9/15/17 15:44,,,,,,
83,2,0,1,3,24229,9/15/17 16:15,,,,,,
83,8,1,10,10,12219,9/15/17 16:15,,,,,,
83,6,2,6,2,10767,9/15/17 16:15,,,,,,
83,5,3,7,5,14981,9/15/17 16:15,,,,,,
83,4,4,9,9,6774,9/15/17 16:16,,,,,,
84,8,0,4,6,40774,9/15/17 14:27,,,,,,
84,8,1,3,2,47902,9/15/17 14:28,,,,,,
84,8,2,1,4,14716,9/15/17 14:28,,,,,,
84,8,3,6,10,18665,9/15/17 14:28,,,,,,
84,8,4,8,5,5592,9/15/17 14:28,,,,,,
85,7,0,8,10,50692,9/15/17 15:32,,,,,,
85,8,1,6,9,19860,9/15/17 15:32,,,,,,
85,8,2,10,7,13833,9/15/17 15:32,,,,,,
85,8,3,7,1,14277,9/15/17 15:32,,,,,,
85,8,4,4,6,15838,9/15/17 15:33,,,,,,
86,0,0,9,10,40841,9/15/17 16:23,,,,,,
86,0,1,1,2,25108,9/15/17 16:24,,,,,,
86,0,2,8,6,15491,9/15/17 16:24,,,,,,
86,0,3,4,4,11509,9/15/17 16:24,,,,,,
86,0,4,3,5,9923,9/15/17 16:25,,,,,,
87,1,0,8,2,24029,9/15/17 14:24,,,,,,
87,5,1,1,9,10150,9/15/17 14:25,,,,,,
87,4,2,7,8,13713,9/15/17 14:25,,,,,,
87,2,3,4,1,10631,9/15/17 14:25,,,,,,
87,5,4,3,5,8428,9/15/17 14:25,,,,,,
88,4,0,5,1,44409,9/15/17 14:37,,,,,,
88,4,1,2,7,19830,9/15/17 14:37,,,,,,
88,4,2,3,2,15584,9/15/17 14:38,,,,,,
88,4,3,6,8,9918,9/15/17 14:38,,,,,,
88,4,4,9,5,10278,9/15/17 14:38,,,,,,
89,1,0,9,5,22438,9/15/17 13:54,,,,,,
89,4,1,3,3,15549,9/15/17 13:55,,,,,,
89,4,2,2,2,16732,9/15/17 13:55,,,,,,
89,4,3,6,9,8762,9/15/17 13:55,,,,,,
89,4,4,7,7,7938,9/15/17 13:55,,,,,,
90,0,0,10,5,41603,9/15/17 13:41,,,,,,
90,4,1,8,7,20082,9/15/17 13:41,,,,,,
90,5,2,5,10,41512,9/15/17 13:42,,,,,,
90,8,3,2,3,17599,9/15/17 13:42,,,,,,
90,2,4,9,9,16800,9/15/17 13:42,,,,,,
91,4,0,6,4,44395,9/15/17 13:49,,,,,,
91,0,1,10,3,18764,9/15/17 13:49,,,,,,
91,4,2,3,1,16013,9/15/17 13:49,,,,,,
91,4,3,4,2,14335,9/15/17 13:50,,,,,,
91,4,4,7,6,11194,9/15/17 13:50,,,,,,
92,4,0,5,8,167935,9/15/17 15:51,,,,,,
92,5,1,6,1,108044,9/15/17 15:53,,,,,,
92,2,2,3,10,30309,9/15/17 15:53,,,,,,
92,7,3,9,5,84137,9/15/17 15:55,,,,,,
92,1,4,1,4,17113,9/15/17 15:55,,,,,,
93,1,0,9,6,83569,9/15/17 13:45,,,,,,
93,8,1,4,10,37255,9/15/17 13:45,,,,,,
93,0,2,5,2,15230,9/15/17 13:46,,,,,,
93,1,3,7,9,12134,9/15/17 13:46,,,,,,
93,1,4,3,8,15471,9/15/17 13:46,,,,,,
94,7,0,1,3,50368,9/15/17 13:41,,,,,,
94,6,1,10,10,11739,9/15/17 13:41,,,,,,
94,3,2,3,6,7960,9/15/17 13:41,,,,,,
94,7,3,4,9,10751,9/15/17 13:41,,,,,,
94,5,4,7,1,8259,9/15/17 13:42,,,,,,
95,4,0,6,1,15987,9/15/17 13:34,,,,,,
95,4,1,5,7,8816,9/15/17 13:34,,,,,,
95,4,2,8,5,6799,9/15/17 13:34,,,,,,
95,4,3,3,4,3692,9/15/17 13:34,,,,,,
95,0,4,10,3,10524,9/15/17 13:35,,,,,,
96,6,0,1,1,54555,9/15/17 15:29,,,,,,
96,2,1,4,7,29621,9/15/17 15:30,,,,,,
96,0,2,10,10,17529,9/15/17 15:30,,,,,,
96,4,3,3,5,14540,9/15/17 15:30,,,,,,
96,3,4,2,3,12075,9/15/17 15:31,,,,,,
97,8,0,6,10,64127,9/15/17 13:45,,,,,,
97,8,1,10,1,32578,9/15/17 13:46,,,,,,
97,1,2,8,9,58449,9/15/17 13:47,,,,,,
97,7,3,2,6,22846,9/15/17 13:47,,,,,,
97,5,4,5,8,31653,9/15/17 13:48,,,,,,
98,2,0,6,5,167784,9/15/17 13:41,,,,,,
98,5,1,3,2,21141,9/15/17 13:42,,,,,,
98,6,2,9,7,10392,9/15/17 13:42,,,,,,
98,5,3,7,6,13007,9/15/17 13:42,,,,,,
98,4,4,1,1,9261,9/15/17 13:42,,,,,,
99,1,0,6,6,22214,9/15/17 14:52,,,,,,
99,7,1,1,7,25109,9/15/17 14:52,,,,,,
99,6,2,3,8,8980,9/15/17 14:52,,,,,,
99,1,3,5,4,12089,9/15/17 14:53,,,,,,
99,0,4,4,1,4391,9/15/17 14:53,,,,,,
100,5,0,8,9,26266,9/15/17 16:45,,,,,,
100,5,1,3,2,6674,9/15/17 16:45,,,,,,
100,5,2,9,4,3512,9/15/17 16:45,,,,,,
100,5,3,7,7,2630,9/15/17 16:45,,,,,,
100,8,4,10,10,5007,9/15/17 16:45,,,,,,
101,5,0,4,5,85383,9/15/17 16:19,,,,,,
101,2,1,7,2,36562,9/15/17 16:20,,,,,,
101,7,2,1,4,25692,9/15/17 16:20,,,,,,
101,6,3,3,6,46526,9/15/17 16:21,,,,,,
101,4,4,5,8,45796,9/15/17 16:22,,,,,,
102,6,0,7,5,41248,9/15/17 17:20,,,,,,
102,4,1,5,1,34496,9/15/17 17:21,,,,,,
102,7,2,6,10,23197,9/15/17 17:21,,,,,,
102,7,3,10,2,12212,9/15/17 17:21,,,,,,
102,2,4,2,4,11399,9/15/17 17:21,,,,,,
103,0,0,1,4,26303,9/15/17 14:01,,,,,,
103,0,1,8,3,27458,9/15/17 14:01,,,,,,
103,0,2,2,9,16602,9/15/17 14:01,,,,,,
103,0,3,10,1,18147,9/15/17 14:02,,,,,,
103,0,4,4,2,11381,9/15/17 14:02,,,,,,
104,2,0,6,1,28513,9/15/17 15:40,,,,,,
104,4,1,4,3,11988,9/15/17 15:41,,,,,,
104,0,2,10,7,8441,9/15/17 15:41,,,,,,
104,1,3,9,5,4021,9/15/17 15:41,,,,,,
104,2,4,7,2,7558,9/15/17 15:41,,,,,,
105,0,0,4,1,57038,9/15/17 14:07,,,,,,
105,1,1,1,7,37144,9/15/17 14:08,,,,,,
105,4,2,8,3,19660,9/15/17 14:08,,,,,,
105,2,3,3,10,13256,9/15/17 14:09,,,,,,
105,1,4,6,6,11300,9/15/17 14:09,,,,,,
106,0,0,3,9,28451,9/15/17 16:49,,,,,,
106,0,1,1,1,21013,9/15/17 16:50,,,,,,
106,0,2,8,2,13932,9/15/17 16:50,,,,,,
106,0,3,5,7,9185,9/15/17 16:50,,,,,,
106,0,4,10,3,8986,9/15/17 16:50,,,,,,
107,2,0,6,8,50646,9/15/17 15:27,,,,,,
107,7,1,3,9,16275,9/15/17 15:28,,,,,,
107,1,2,8,2,7117,9/15/17 15:28,,,,,,
107,1,3,10,6,6952,9/15/17 15:28,,,,,,
107,4,4,5,5,11523,9/15/17 15:28,,,,,,
108,5,0,3,1,5785,9/15/17 17:32,,,,,,
108,5,1,4,7,1592,9/15/17 17:32,,,,,,
108,3,2,8,10,1045,9/15/17 17:32,,,,,,
108,5,3,6,9,1408,9/15/17 17:32,,,,,,
108,4,4,5,2,1161,9/15/17 17:32,,,,,,
109,4,0,8,7,32597,9/15/17 15:31,,,,,,
109,2,1,10,2,15774,9/15/17 15:32,,,,,,
109,7,2,3,4,11337,9/15/17 15:32,,,,,,
109,4,3,5,5,9806,9/15/17 15:32,,,,,,
109,6,4,4,8,8155,9/15/17 15:32,,,,,,
110,7,0,9,5,27749,9/15/17 14:10,,,,,,
110,2,1,3,3,14316,9/15/17 14:10,,,,,,
110,1,2,2,8,11902,9/15/17 14:10,,,,,,
110,6,3,6,4,7198,9/15/17 14:11,,,,,,
110,5,4,4,7,7116,9/15/17 14:11,,,,,,
111,4,0,4,6,63797,9/15/17 15:08,,,,,,
111,4,1,7,2,21650,9/15/17 15:08,,,,,,
111,4,2,8,9,17457,9/15/17 15:09,,,,,,
111,4,3,2,1,12148,9/15/17 15:09,,,,,,
111,4,4,10,3,15775,9/15/17 15:09,,,,,,
112,4,0,5,4,223884,9/15/17 16:48,,,,,,
112,8,1,1,7,17854,9/15/17 16:48,,,,,,
112,6,2,10,5,14404,9/15/17 16:48,,,,,,
112,1,3,6,1,6638,9/15/17 16:48,,,,,,
112,1,4,4,8,15716,9/15/17 16:49,,,,,,
113,7,0,1,8,12555,9/15/17 13:36,,,,,,
113,1,1,8,4,10153,9/15/17 13:36,,,,,,
113,1,2,7,5,11094,9/15/17 13:37,,,,,,
113,6,3,5,6,9649,9/15/17 13:37,,,,,,
113,8,4,3,2,5583,9/15/17 13:37,,,,,,
114,4,0,7,4,66794,9/15/17 15:31,,,,,,
114,4,1,4,5,34798,9/15/17 15:31,,,,,,
114,4,2,3,8,24457,9/15/17 15:32,,,,,,
114,4,3,2,2,14361,9/15/17 15:32,,,,,,
114,4,4,9,7,11985,9/15/17 15:32,,,,,,
115,6,0,1,8,30801,9/15/17 16:20,,,,,,
115,4,1,6,3,9804,9/15/17 16:20,,,,,,
115,2,2,5,4,6498,9/15/17 16:20,,,,,,
115,1,3,9,10,3205,9/15/17 16:20,,,,,,
115,1,4,7,7,7361,9/15/17 16:21,,,,,,
116,7,0,9,10,19153,9/15/17 14:21,,,,,,
116,5,1,3,6,15795,9/15/17 14:21,,,,,,
116,5,2,10,9,9516,9/15/17 14:21,,,,,,
116,3,3,5,8,12073,9/15/17 14:22,,,,,,
116,4,4,1,1,8596,9/15/17 14:22,,,,,,
117,6,0,1,1,69648,9/15/17 14:51,,,,,,
117,5,1,8,5,44111,9/15/17 14:52,,,,,,
117,6,2,9,9,11003,9/15/17 14:52,,,,,,
117,6,3,3,3,11369,9/15/17 14:52,,,,,,
117,5,4,5,2,17885,9/15/17 14:52,,,,,,
118,6,0,10,10,14704,9/15/17 16:28,,,,,,
118,3,1,8,3,11294,9/15/17 16:28,,,,,,
118,5,2,6,8,13504,9/15/17 16:29,,,,,,
118,8,3,1,5,6481,9/15/17 16:29,,,,,,
118,3,4,7,7,5633,9/15/17 16:29,,,,,,
119,3,0,3,9,32934,9/15/17 15:05,,,,,,
119,5,1,7,10,18172,9/15/17 15:06,,,,,,
119,5,2,6,4,9095,9/15/17 15:06,,,,,,
119,5,3,4,5,3049,9/15/17 15:06,,,,,,
119,5,4,10,2,2532,9/15/17 15:06,,,,,,
120,6,0,1,3,34530,9/15/17 17:09,,,,,,
120,0,1,10,4,16788,9/15/17 17:09,,,,,,
120,2,2,8,10,14186,9/15/17 17:10,,,,,,
120,5,3,3,7,20284,9/15/17 17:10,,,,,,
120,7,4,2,5,7324,9/15/17 17:10,,,,,,
121,7,0,5,7,53714,9/15/17 16:31,,,,,,
121,7,1,1,2,40318,9/15/17 16:31,,,,,,
121,7,2,2,8,8070,9/15/17 16:31,,,,,,
121,7,3,6,4,17765,9/15/17 16:32,,,,,,
121,7,4,7,6,12432,9/15/17 16:32,,,,,,
122,0,0,9,8,34382,9/15/17 15:21,,,,,,
122,0,1,1,5,15148,9/15/17 15:21,,,,,,
122,0,2,8,9,9104,9/15/17 15:21,,,,,,
122,0,3,4,1,9432,9/15/17 15:21,,,,,,
122,0,4,7,10,18294,9/15/17 15:22,,,,,,
123,3,0,5,8,71670,9/15/17 14:42,,,,,,
123,2,1,8,5,9258,9/15/17 14:43,,,,,,
123,0,2,1,1,8682,9/15/17 14:43,,,,,,
123,2,3,9,9,10914,9/15/17 14:43,,,,,,
123,3,4,6,2,9341,9/15/17 14:43,,,,,,
124,5,0,2,8,107062,9/15/17 15:34,,,,,,
124,4,1,6,9,133874,9/15/17 15:36,,,,,,
124,4,2,5,6,30282,9/15/17 15:36,,,,,,
124,2,3,1,1,25699,9/15/17 15:37,,,,,,
124,2,4,3,3,16318,9/15/17 15:37,,,,,,
125,1,0,8,2,44793,9/15/17 16:48,,,,,,
125,7,1,7,10,21750,9/15/17 16:48,,,,,,
125,4,2,2,1,19048,9/15/17 16:49,,,,,,
125,3,3,6,5,15170,9/15/17 16:49,,,,,,
125,7,4,3,9,9004,9/15/17 16:49,,,,,,
126,7,0,4,9,24287,9/15/17 14:38,,,,,,
126,4,1,10,10,11246,9/15/17 14:38,,,,,,
126,1,2,7,1,8230,9/15/17 14:38,,,,,,
126,1,3,9,7,8105,9/15/17 14:38,,,,,,
126,3,4,5,3,6260,9/15/17 14:38,,,,,,
127,8,0,1,10,36541,9/15/17 14:05,,,,,,
127,5,1,3,4,22948,9/15/17 14:06,,,,,,
127,3,2,5,3,9044,9/15/17 14:06,,,,,,
127,0,3,10,7,7806,9/15/17 14:06,,,,,,
127,7,4,2,5,12726,9/15/17 14:06,,,,,,
128,1,0,1,1,34455,9/15/17 16:37,,,,,,
128,1,1,9,9,17299,9/15/17 16:37,,,,,,
128,1,2,2,7,31102,9/15/17 16:38,,,,,,
128,1,3,3,5,11056,9/15/17 16:38,,,,,,
128,0,4,6,10,7017,9/15/17 16:38,,,,,,
129,1,0,7,2,40458,9/15/17 15:55,,,,,,
129,0,1,10,1,12531,9/15/17 15:56,,,,,,
129,6,2,2,9,15580,9/15/17 15:56,,,,,,
129,1,3,8,6,10437,9/15/17 15:56,,,,,,
129,1,4,4,4,15348,9/15/17 15:56,,,,,,
130,4,0,4,3,62630,9/15/17 15:07,,,,,,
130,4,1,5,8,34238,9/15/17 15:08,,,,,,
130,4,2,1,5,10210,9/15/17 15:08,,,,,,
130,4,3,7,2,13276,9/15/17 15:08,,,,,,
130,4,4,10,1,13299,9/15/17 15:09,,,,,,
131,4,0,7,7,31062,9/15/17 17:19,,,,,,
131,4,1,8,10,16271,9/15/17 17:19,,,,,,
131,4,2,3,1,11178,9/15/17 17:20,,,,,,
131,4,3,5,8,12656,9/15/17 17:20,,,,,,
131,4,4,1,9,6156,9/15/17 17:20,,,,,,
132,3,0,4,5,58619,9/15/17 13:38,,,,,,
132,4,1,10,10,19471,9/15/17 13:38,,,,,,
132,1,2,8,1,21108,9/15/17 13:39,,,,,,
132,1,3,7,3,13357,9/15/17 13:39,,,,,,
132,1,4,5,2,10019,9/15/17 13:39,,,,,,
133,6,0,4,5,5660,9/15/17 17:08,,,,,,
133,4,1,3,9,2737,9/15/17 17:08,,,,,,
133,2,2,6,4,2234,9/15/17 17:08,,,,,,
133,4,3,1,3,2712,9/15/17 17:08,,,,,,
133,5,4,8,7,2465,9/15/17 17:08,,,,,,
134,1,0,6,2,15997,9/15/17 15:52,,,,,,
134,1,1,7,3,8199,9/15/17 15:53,,,,,,
134,1,2,4,10,10017,9/15/17 15:53,,,,,,
134,1,3,2,9,6392,9/15/17 15:53,,,,,,
134,1,4,1,7,5047,9/15/17 15:53,,,,,,
135,4,0,1,7,37380,9/15/17 14:42,,,,,,
135,4,1,8,4,18547,9/15/17 14:43,,,,,,
135,0,2,10,9,19555,9/15/17 14:43,,,,,,
135,4,3,3,2,5738,9/15/17 14:43,,,,,,
135,4,4,6,3,7272,9/15/17 14:43,,,,,,
136,0,0,8,9,32041,9/15/17 15:05,,,,,,
136,0,1,5,6,18266,9/15/17 15:05,,,,,,
136,0,2,3,8,39290,9/15/17 15:06,,,,,,
136,0,3,2,1,8125,9/15/17 15:06,,,,,,
136,0,4,4,5,11976,9/15/17 15:06,,,,,,
137,3,0,2,8,23862,9/15/17 15:41,,,,,,
137,2,1,9,9,15278,9/15/17 15:41,,,,,,
137,1,2,4,2,13478,9/15/17 15:41,,,,,,
137,0,3,10,5,10905,9/15/17 15:42,,,,,,
137,1,4,1,3,9776,9/15/17 15:42,,,,,,
138,6,0,7,7,26410,9/15/17 14:27,,,,,,
138,8,1,4,8,18566,9/15/17 14:27,,,,,,
138,8,2,1,9,4916,9/15/17 14:27,,,,,,
138,2,3,8,5,7142,9/15/17 14:27,,,,,,
138,0,4,10,4,4695,9/15/17 14:27,,,,,,
139,8,0,3,5,58301,9/15/17 15:51,,,,,,
139,8,1,9,7,43832,9/15/17 15:52,,,,,,
139,0,2,2,2,17483,9/15/17 15:52,,,,,,
139,0,3,1,3,30507,9/15/17 15:53,,,,,,
139,4,4,4,4,6972,9/15/17 15:53,,,,,,
140,0,0,10,1,49629,9/15/17 17:17,,,,,,
140,4,1,4,6,23347,9/15/17 17:18,,,,,,
140,6,2,3,9,10523,9/15/17 17:18,,,,,,
140,8,3,1,10,9490,9/15/17 17:18,,,,,,
140,4,4,8,3,15335,9/15/17 17:19,,,,,,
141,0,0,3,2,92710,9/15/17 16:53,,,,,,
141,0,1,9,1,36729,9/15/17 16:53,,,,,,
141,0,2,2,9,28664,9/15/17 16:54,,,,,,
141,0,3,10,6,19533,9/15/17 16:54,,,,,,
141,0,4,4,4,29169,9/15/17 16:55,,,,,,
142,4,0,8,6,127326,9/15/17 17:04,,,,,,
142,3,1,9,1,30554,9/15/17 17:04,,,,,,
142,6,2,7,9,18052,9/15/17 17:05,,,,,,
142,6,3,2,5,14552,9/15/17 17:05,,,,,,
142,6,4,1,4,13166,9/15/17 17:05,,,,,,
143,3,0,7,6,39703,9/15/17 15:31,,,,,,
143,4,1,2,7,26394,9/15/17 15:32,,,,,,
143,2,2,6,3,20262,9/15/17 15:32,,,,,,
143,6,3,8,10,19469,9/15/17 15:32,,,,,,
143,2,4,4,8,12666,9/15/17 15:33,,,,,,
144,4,0,1,10,116286,9/15/17 16:41,,,,,,
144,4,1,2,7,22895,9/15/17 16:42,,,,,,
144,4,2,5,5,8630,9/15/17 16:42,,,,,,
144,4,3,9,3,7732,9/15/17 16:42,,,,,,
144,4,4,3,8,10870,9/15/17 16:42,,,,,,
145,4,0,3,7,48448,9/15/17 14:27,,,,,,
145,3,1,2,5,28644,9/15/17 14:27,,,,,,
145,2,2,6,3,15587,9/15/17 14:27,,,,,,
145,2,3,4,6,9420,9/15/17 14:28,,,,,,
145,3,4,10,9,13901,9/15/17 14:28,,,,,,
146,5,0,8,9,20528,9/15/17 17:20,,,,,,
146,7,1,9,10,4727,9/15/17 17:20,,,,,,
146,1,2,10,8,43457,9/15/17 17:20,,,,,,
146,6,3,3,3,3877,9/15/17 17:21,,,,,,
146,5,4,5,5,6694,9/15/17 17:21,,,,,,
147,5,0,7,4,34958,9/15/17 16:38,,,,,,
147,8,1,5,8,14483,9/15/17 16:38,,,,,,
147,8,2,6,3,9857,9/15/17 16:38,,,,,,
147,8,3,8,9,8307,9/15/17 16:39,,,,,,
147,8,4,1,7,9495,9/15/17 16:39,,,,,,
148,0,0,10,10,20841,9/15/17 14:44,,,,,,
148,0,1,7,2,11404,9/15/17 14:44,,,,,,
148,0,2,6,1,7796,9/15/17 14:44,,,,,,
148,0,3,3,6,7855,9/15/17 14:44,,,,,,
148,0,4,5,4,6261,9/15/17 14:45,,,,,,
149,4,0,8,8,14339,9/15/17 17:27,,,,,,
149,6,1,2,1,6593,9/15/17 17:27,,,,,,
149,3,2,7,4,6486,9/15/17 17:27,,,,,,
149,1,3,10,5,3239,9/15/17 17:27,,,,,,
149,7,4,1,3,6144,9/15/17 17:27,,,,,,
150,4,0,5,5,16525,9/15/17 15:43,,,,,,
150,2,1,1,2,8209,9/15/17 15:43,,,,,,
150,6,2,10,4,7467,9/15/17 15:43,,,,,,
150,8,3,8,10,10435,9/15/17 15:43,,,,,,
150,8,4,7,9,8728,9/15/17 15:43,,,,,,
151,5,0,10,5,81063,9/15/17 13:44,,,,,,
151,4,1,6,2,42481,9/15/17 13:45,,,,,,
151,4,2,9,3,5858,9/15/17 13:45,,,,,,
151,4,3,8,9,5912,9/15/17 13:45,,,,,,
151,4,4,7,4,4260,9/15/17 13:45,,,,,,
152,2,0,2,9,20609,9/15/17 14:21,,,,,,
152,3,1,3,10,34874,9/15/17 14:21,,,,,,
152,0,2,10,4,8907,9/15/17 14:21,,,,,,
152,1,3,7,6,5013,9/15/17 14:22,,,,,,
152,1,4,8,1,3802,9/15/17 14:22,,,,,,
153,4,0,9,6,41955,9/15/17 14:09,,,,,,
153,4,1,4,7,15036,9/15/17 14:10,,,,,,
153,4,2,7,9,16258,9/15/17 14:10,,,,,,
153,4,3,2,3,13807,9/15/17 14:10,,,,,,
153,4,4,1,1,13360,9/15/17 14:10,,,,,,
154,1,0,8,1,30630,9/15/17 15:26,,,,,,
154,4,1,6,7,18744,9/15/17 15:26,,,,,,
154,6,2,2,5,5568,9/15/17 15:27,,,,,,
154,1,3,9,4,13162,9/15/17 15:27,,,,,,
154,4,4,3,3,2606,9/15/17 15:27,,,,,,
155,1,0,3,5,45350,9/15/17 16:06,,,,,,
155,3,1,2,9,23641,9/15/17 16:07,,,,,,
155,0,2,9,1,15058,9/15/17 16:07,,,,,,
155,1,3,7,8,16155,9/15/17 16:07,,,,,,
155,0,4,10,4,16438,9/15/17 16:08,,,,,,
156,5,0,4,5,34874,9/15/17 14:16,,,,,,
156,7,1,2,10,19187,9/15/17 14:16,,,,,,
156,5,2,3,9,18940,9/15/17 14:17,,,,,,
156,4,3,7,4,16606,9/15/17 14:17,,,,,,
156,-1,4,9,1,10684,9/15/17 14:17,,,,,,
157,6,0,5,7,289826,9/15/17 14:51,,,,,,
157,6,1,4,6,12581,9/15/17 14:51,,,,,,
157,6,2,2,2,5152,9/15/17 14:51,,,,,,
157,2,3,10,3,14119,9/15/17 14:51,,,,,,
157,4,4,9,9,7893,9/15/17 14:51,,,,,,
158,0,0,8,1,39030,9/15/17 16:00,,,,,,
158,0,1,6,5,14812,9/15/17 16:01,,,,,,
158,3,2,3,9,50425,9/15/17 16:01,,,,,,
158,1,3,5,4,12919,9/15/17 16:02,,,,,,
158,0,4,7,3,6723,9/15/17 16:02,,,,,,
159,0,0,4,6,129402,9/15/17 14:27,,,,,,
159,0,1,10,8,59468,9/15/17 14:28,,,,,,
159,8,2,8,5,59254,9/15/17 14:29,,,,,,
159,8,3,9,4,49849,9/15/17 14:30,,,,,,
159,4,4,6,3,25842,9/15/17 14:31,,,,,,
160,3,0,3,2,36923,9/15/17 13:36,,,,,,
160,0,1,8,3,17900,9/15/17 13:37,,,,,,
160,0,2,10,6,14370,9/15/17 13:37,,,,,,
160,0,3,6,5,9845,9/15/17 13:37,,,,,,
160,0,4,9,10,9993,9/15/17 13:37,,,,,,
161,3,0,4,10,74009,9/15/17 15:30,,,,,,
161,2,1,5,8,44555,9/15/17 15:30,,,,,,
161,3,2,2,6,23085,9/15/17 15:31,,,,,,
161,2,3,3,4,19271,9/15/17 15:31,,,,,,
161,2,4,7,2,15105,9/15/17 15:31,,,,,,
162,0,0,1,4,55912,9/15/17 16:56,,,,,,
162,0,1,4,7,22016,9/15/17 16:56,,,,,,
162,0,2,6,1,16269,9/15/17 16:56,,,,,,
162,0,3,5,6,17580,9/15/17 16:57,,,,,,
162,0,4,9,5,13351,9/15/17 16:57,,,,,,
163,5,0,6,1,52973,9/15/17 16:12,,,,,,
163,5,1,3,8,15255,9/15/17 16:12,,,,,,
163,5,2,8,2,8239,9/15/17 16:12,,,,,,
163,5,3,4,7,18394,9/15/17 16:12,,,,,,
163,5,4,2,9,7827,9/15/17 16:12,,,,,,
164,6,0,3,10,48921,9/15/17 14:19,,,,,,
164,3,1,4,6,9895,9/15/17 14:20,,,,,,
164,2,2,8,2,16934,9/15/17 14:20,,,,,,
164,5,3,6,5,13716,9/15/17 14:20,,,,,,
164,2,4,5,4,10020,9/15/17 14:20,,,,,,
165,6,0,8,8,4008,9/15/17 15:31,,,,,,
165,7,1,7,4,4657,9/15/17 15:31,,,,,,
165,4,2,1,9,3526,9/15/17 15:31,,,,,,
165,8,3,2,2,2946,9/15/17 15:31,,,,,,
165,8,4,9,3,3752,9/15/17 15:31,,,,,,
166,4,0,4,7,52349,9/15/17 15:00,,,,,,
166,4,1,10,9,16935,9/15/17 15:00,,,,,,
166,3,2,6,3,11314,9/15/17 15:00,,,,,,
166,4,3,5,5,8867,9/15/17 15:00,,,,,,
166,5,4,1,4,10306,9/15/17 15:00,,,,,,
167,4,0,2,1,79537,9/15/17 14:54,,,,,,
167,4,1,6,9,32717,9/15/17 14:54,,,,,,
167,4,2,8,7,13498,9/15/17 14:54,,,,,,
167,5,3,1,5,19320,9/15/17 14:55,,,,,,
167,6,4,9,8,12368,9/15/17 14:55,,,,,,
168,8,0,4,9,34248,9/15/17 13:43,,,,,,
168,8,1,3,6,9613,9/15/17 13:43,,,,,,
168,1,2,6,3,10684,9/15/17 13:44,,,,,,
168,3,3,7,7,13745,9/15/17 13:44,,,,,,
168,0,4,10,5,5221,9/15/17 13:44,,,,,,
169,0,0,10,4,43403,9/15/17 14:16,,,,,,
169,4,1,5,8,20161,9/15/17 14:17,,,,,,
169,3,2,4,10,13032,9/15/17 14:17,,,,,,
169,3,3,6,9,39164,9/15/17 14:17,,,,,,
169,5,4,1,1,12611,9/15/17 14:18,,,,,,
170,0,0,9,1,39733,9/15/17 14:42,,,,,,
170,8,1,4,10,23364,9/15/17 14:42,,,,,,
170,0,2,10,6,12153,9/15/17 14:43,,,,,,
170,4,3,1,3,14504,9/15/17 14:43,,,,,,
170,6,4,2,9,44484,9/15/17 14:44,,,,,,
171,1,0,6,5,45892,9/15/17 14:18,,,,,,
171,1,1,9,8,18802,9/15/17 14:18,,,,,,
171,2,2,7,7,11515,9/15/17 14:19,,,,,,
171,1,3,4,10,12081,9/15/17 14:19,,,,,,
171,1,4,8,9,8529,9/15/17 14:19,,,,,,
172,8,0,1,5,18461,9/15/17 15:29,,,,,,
172,1,0,2,5,5447,9/15/17 15:29,,,,,,
172,4,1,5,4,1802,9/15/17 15:29,,,,,,
172,6,2,8,10,1713,9/15/17 15:29,,,,,,
172,6,3,7,9,2569,9/15/17 15:30,,,,,,
172,0,4,1,1,1715,9/15/17 15:30,,,,,,
173,8,0,4,4,31024,9/15/17 14:26,,,,,,
173,8,1,8,2,20764,9/15/17 14:26,,,,,,
173,8,2,6,7,12126,9/15/17 14:26,,,,,,
173,4,3,3,6,30867,9/15/17 14:27,,,,,,
173,8,4,9,5,11484,9/15/17 14:27,,,,,,
174,4,0,6,9,38206,9/15/17 16:46,,,,,,
174,5,1,3,7,17181,9/15/17 16:46,,,,,,
174,1,2,9,1,13628,9/15/17 16:47,,,,,,
174,6,3,2,10,11823,9/15/17 16:47,,,,,,
174,4,4,8,4,12686,9/15/17 16:47,,,,,,
175,8,0,2,1,73564,9/15/17 14:31,,,,,,
175,8,1,10,3,30394,9/15/17 14:32,,,,,,
175,4,2,1,2,17588,9/15/17 14:32,,,,,,
175,8,3,6,4,12948,9/15/17 14:32,,,,,,
175,8,4,8,7,14036,9/15/17 14:32,,,,,,
176,6,0,4,1,29421,9/15/17 13:34,,,,,,
176,8,1,7,10,26866,9/15/17 13:34,,,,,,
176,6,2,6,9,8412,9/15/17 13:34,,,,,,
176,6,3,3,8,19827,9/15/17 13:35,,,,,,
176,4,4,5,5,16939,9/15/17 13:35,,,,,,
177,1,0,7,2,50273,9/15/17 15:23,,,,,,
177,7,1,4,9,35051,9/15/17 15:24,,,,,,
177,1,2,9,8,24690,9/15/17 15:25,,,,,,
177,7,3,2,7,16363,9/15/17 15:25,,,,,,
177,0,4,10,1,12203,9/15/17 15:25,,,,,,
178,6,0,5,8,63387,9/15/17 14:54,,,,,,
178,0,1,10,5,21114,9/15/17 14:54,,,,,,
178,3,2,6,2,34386,9/15/17 14:55,,,,,,
178,4,3,7,3,23284,9/15/17 14:55,,,,,,
178,8,4,9,1,15561,9/15/17 14:56,,,,,,
179,6,0,5,1,6960,9/15/17 16:18,,,,,,
179,5,1,4,6,2812,9/15/17 16:18,,,,,,
179,7,2,6,4,3914,9/15/17 16:18,,,,,,
179,7,3,7,5,2152,9/15/17 16:18,,,,,,
179,8,4,10,3,2798,9/15/17 16:19,,,,,,
180,0,0,7,9,65542,9/15/17 15:24,,,,,,
180,0,1,10,10,19274,9/15/17 15:25,,,,,,
180,0,2,1,5,13108,9/15/17 15:25,,,,,,
180,0,3,9,7,11947,9/15/17 15:25,,,,,,
180,0,4,3,4,11015,9/15/17 15:25,,,,,,
181,4,0,5,6,42183,9/15/17 16:21,,,,,,
181,4,1,4,2,17572,9/15/17 16:21,,,,,,
181,4,2,3,7,18177,9/15/17 16:21,,,,,,
181,4,3,9,1,12048,9/15/17 16:21,,,,,,
181,4,4,10,4,12464,9/15/17 16:22,,,,,,
182,8,0,5,1,30517,9/15/17 15:33,,,,,,
182,4,1,10,6,10087,9/15/17 15:33,,,,,,
182,8,2,1,4,7043,9/15/17 15:33,,,,,,
182,8,3,2,10,6533,9/15/17 15:33,,,,,,
182,6,4,3,2,11473,9/15/17 15:34,,,,,,
183,7,0,6,3,27674,9/15/17 13:54,,,,,,
183,7,1,5,2,8092,9/15/17 13:54,,,,,,
183,7,2,3,9,9719,9/15/17 13:54,,,,,,
183,6,3,2,7,5693,9/15/17 13:55,,,,,,
183,6,4,4,8,4851,9/15/17 13:55,,,,,,
184,6,0,1,8,28543,9/15/17 15:36,,,,,,
184,2,1,6,6,15742,9/15/17 15:36,,,,,,
184,1,2,3,3,10298,9/15/17 15:36,,,,,,
184,0,3,2,1,7428,9/15/17 15:36,,,,,,
184,0,4,8,7,10793,9/15/17 15:36,,,,,,
185,2,0,10,6,38542,9/15/17 16:31,,,,,,
185,7,1,3,10,15296,9/15/17 16:32,,,,,,
185,2,2,6,5,14499,9/15/17 16:32,,,,,,
185,2,3,7,3,13032,9/15/17 16:32,,,,,,
185,1,4,5,1,10270,9/15/17 16:32,,,,,,
186,8,0,5,6,71035,9/15/17 13:45,,,,,,
186,8,1,4,7,44880,9/15/17 13:46,,,,,,
186,8,2,2,9,63443,9/15/17 13:47,,,,,,
186,4,3,3,3,8557,9/15/17 13:47,,,,,,
186,6,4,6,5,14162,9/15/17 13:48,,,,,,
187,6,0,8,9,34758,9/15/17 16:16,,,,,,
187,6,1,7,6,17433,9/15/17 16:17,,,,,,
187,6,2,6,3,9689,9/15/17 16:17,,,,,,
187,4,3,10,8,12596,9/15/17 16:17,,,,,,
187,6,4,2,2,7864,9/15/17 16:17,,,,,,
188,4,0,9,6,23973,9/15/17 15:32,,,,,,
188,4,1,4,4,9747,9/15/17 15:32,,,,,,
188,4,2,3,8,8024,9/15/17 15:32,,,,,,
188,4,3,1,9,3323,9/15/17 15:32,,,,,,
188,4,4,6,10,2513,9/15/17 15:33,,,,,,
189,8,0,2,3,45169,9/15/17 17:33,,,,,,
189,8,1,1,1,12786,9/15/17 17:33,,,,,,
189,8,2,8,4,12008,9/15/17 17:33,,,,,,
189,8,3,9,8,9601,9/15/17 17:34,,,,,,
189,8,4,7,9,10965,9/15/17 17:34,,,,,,
190,5,0,2,4,20965,9/15/17 13:54,,,,,,
190,0,1,10,5,7936,9/15/17 13:54,,,,,,
190,7,2,1,8,8367,9/15/17 13:54,,,,,,
190,2,3,7,9,16280,9/15/17 13:55,,,,,,
190,1,4,9,1,4510,9/15/17 13:55,,,,,,
191,2,0,6,5,40244,9/15/17 14:29,,,,,,
191,6,1,4,6,21686,9/15/17 14:30,,,,,,
191,3,2,2,3,11785,9/15/17 14:30,,,,,,
191,1,3,8,4,17274,9/15/17 14:30,,,,,,
191,1,4,7,2,8708,9/15/17 14:30,,,,,,
192,0,0,5,5,59861,9/15/17 17:25,,,,,,
192,0,1,1,4,32598,9/15/17 17:25,,,,,,
192,0,2,9,1,15867,9/15/17 17:26,,,,,,
192,0,3,4,7,58218,9/15/17 17:27,,,,,,
192,0,4,7,2,13532,9/15/17 17:27,,,,,,
193,8,0,8,9,34587,9/15/17 14:08,,,,,,
193,7,1,6,10,21484,9/15/17 14:09,,,,,,
193,6,2,10,6,14447,9/15/17 14:09,,,,,,
193,6,3,4,3,11204,9/15/17 14:09,,,,,,
193,6,4,3,8,8947,9/15/17 14:09,,,,,,
194,5,0,9,8,35852,9/15/17 15:24,,,,,,
194,5,1,3,6,22218,9/15/17 15:25,,,,,,
194,5,2,7,7,10669,9/15/17 15:25,,,,,,
194,3,3,4,5,8505,9/15/17 15:25,,,,,,
194,1,4,5,2,7941,9/15/17 15:25,,,,,,
195,5,0,1,3,40087,9/15/17 15:12,,,,,,
195,4,1,4,4,16908,9/15/17 15:13,,,,,,
195,3,2,7,1,7968,9/15/17 15:13,,,,,,
195,3,3,5,2,9660,9/15/17 15:13,,,,,,
195,8,4,8,10,8597,9/15/17 15:13,,,,,,
196,1,0,7,8,88367,9/15/17 14:12,,,,,,
196,4,1,2,1,14710,9/15/17 14:12,,,,,,
196,2,2,5,3,7277,9/15/17 14:12,,,,,,
196,0,3,10,9,8689,9/15/17 14:12,,,,,,
196,5,4,1,10,3506,9/15/17 14:12,,,,,,
197,4,0,9,5,10113,9/15/17 15:42,,,,,,
197,3,1,8,9,3498,9/15/17 15:42,,,,,,
197,4,2,5,4,5366,9/15/17 15:42,,,,,,
197,0,3,10,3,3780,9/15/17 15:42,,,,,,
197,6,4,3,8,2654,9/15/17 15:42,,,,,,
198,7,0,3,6,27802,9/15/17 15:20,,,,,,
198,4,1,8,8,9464,9/15/17 15:20,,,,,,
198,2,2,6,2,61436,9/15/17 15:21,,,,,,
198,1,3,4,1,5021,9/15/17 15:21,,,,,,
198,2,4,9,3,4756,9/15/17 15:21,,,,,,
199,6,0,1,10,10243,9/15/17 15:02,,,,,,
199,5,1,3,8,34014,9/15/17 15:02,,,,,,
199,4,2,4,7,3585,9/15/17 15:02,,,,,,
199,5,3,2,2,2381,9/15/17 15:02,,,,,,
199,4,4,10,1,6804,9/15/17 15:03,,,,,,
200,0,0,3,5,25613,9/15/17 17:04,,,,,,
200,0,1,7,2,9693,9/15/17 17:04,,,,,,
200,0,2,1,9,10626,9/15/17 17:04,,,,,,
200,0,3,10,3,10634,9/15/17 17:04,,,,,,
200,0,4,9,4,14499,9/15/17 17:04,,,,,,
201,2,0,6,8,46024,9/15/17 17:06,,,,,,
201,1,1,5,1,18689,9/15/17 17:06,,,,,,
201,6,2,1,9,14863,9/15/17 17:06,,,,,,
201,5,3,2,6,14620,9/15/17 17:06,,,,,,
201,1,4,9,4,22348,9/15/17 17:07,,,,,,
202,4,0,9,3,51511,9/15/17 13:36,,,,,,
202,4,1,4,7,35900,9/15/17 13:37,,,,,,
202,1,2,8,2,19865,9/15/17 13:37,,,,,,
202,5,3,7,10,22124,9/15/17 13:37,,,,,,
202,2,4,3,6,11054,9/15/17 13:38,,,,,,
203,2,0,1,4,65407,9/15/17 14:08,,,,,,
203,0,1,10,5,23626,9/15/17 14:09,,,,,,
203,3,2,7,8,23421,9/15/17 14:09,,,,,,
203,4,3,6,1,17020,9/15/17 14:09,,,,,,
203,5,4,2,9,13408,9/15/17 14:09,,,,,,
204,6,0,6,3,36466,9/15/17 17:19,,,,,,
204,6,1,8,8,17545,9/15/17 17:19,,,,,,
204,6,2,1,7,9176,9/15/17 17:19,,,,,,
204,6,3,4,1,10050,9/15/17 17:19,,,,,,
204,2,4,10,6,10377,9/15/17 17:20,,,,,,
205,4,0,3,8,31494,9/15/17 17:03,,,,,,
205,3,1,8,2,20269,9/15/17 17:04,,,,,,
205,3,2,2,9,19102,9/15/17 17:04,,,,,,
205,3,3,7,5,5398,9/15/17 17:04,,,,,,
205,2,4,6,1,13814,9/15/17 17:04,,,,,,
206,4,0,2,5,27423,9/15/17 14:52,,,,,,
206,4,1,7,1,28906,9/15/17 14:52,,,,,,
206,4,2,10,7,4816,9/15/17 14:52,,,,,,
206,4,3,3,3,4445,9/15/17 14:52,,,,,,
206,4,4,5,4,3688,9/15/17 14:52,,,,,,
207,6,0,7,7,49810,9/15/17 15:32,,,,,,
207,1,1,1,3,36636,9/15/17 15:33,,,,,,
207,3,2,8,10,15841,9/15/17 15:33,,,,,,
207,7,3,9,1,8840,9/15/17 15:33,,,,,,
207,8,4,10,6,5692,9/15/17 15:33,,,,,,
208,2,0,6,3,38999,9/15/17 15:56,,,,,,
208,2,1,1,2,24621,9/15/17 15:56,,,,,,
208,3,2,7,8,18630,9/15/17 15:57,,,,,,
208,3,3,9,7,13461,9/15/17 15:57,,,,,,
208,2,4,4,4,13670,9/15/17 15:57,,,,,,
209,8,0,3,10,15805,9/15/17 15:08,,,,,,
209,0,1,10,3,12538,9/15/17 15:08,,,,,,
209,5,2,8,9,17869,9/15/17 15:09,,,,,,
209,5,3,2,7,8928,9/15/17 15:09,,,,,,
209,4,4,4,4,6996,9/15/17 15:09,,,,,,
210,6,0,3,3,56022,9/15/17 16:34,,,,,,
210,6,1,9,6,22725,9/15/17 16:34,,,,,,
210,6,2,5,5,13959,9/15/17 16:34,,,,,,
210,7,3,7,10,20460,9/15/17 16:35,,,,,,
210,6,4,6,1,13947,9/15/17 16:35,,,,,,
211,2,0,8,5,63468,9/15/17 15:47,,,,,,
211,4,1,7,2,18950,9/15/17 15:48,,,,,,
211,3,2,9,3,47718,9/15/17 15:48,,,,,,
212,4,0,5,7,16557,9/15/17 16:24,,,,,,
212,4,1,4,2,5589,9/15/17 16:25,,,,,,
212,4,2,6,1,2086,9/15/17 16:25,,,,,,
212,4,3,8,6,2165,9/15/17 16:25,,,,,,
212,4,4,10,8,1549,9/15/17 16:25,,,,,,
213,0,0,10,1,28899,9/15/17 13:47,,,,,,
213,8,1,3,9,17676,9/15/17 13:48,,,,,,
213,7,2,2,5,13230,9/15/17 13:48,,,,,,
213,4,3,9,6,10305,9/15/17 13:48,,,,,,
213,4,4,8,8,8118,9/15/17 13:48,,,,,,
214,7,0,1,6,47973,9/15/17 15:17,,,,,,
214,7,1,4,10,48073,9/15/17 15:18,,,,,,
214,0,2,10,3,26337,9/15/17 15:18,,,,,,
214,0,3,7,2,19463,9/15/17 15:19,,,,,,
214,4,4,6,8,24661,9/15/17 15:19,,,,,,
215,0,0,10,3,16464,9/15/17 16:07,,,,,,
215,4,1,6,2,5181,9/15/17 16:07,,,,,,
215,4,2,5,6,4879,9/15/17 16:08,,,,,,
215,4,3,8,5,3062,9/15/17 16:08,,,,,,
215,4,4,2,4,2797,9/15/17 16:08,,,,,,
216,7,0,7,7,45607,9/15/17 16:03,,,,,,
216,7,1,10,10,31168,9/15/17 16:04,,,,,,
216,7,2,2,9,26256,9/15/17 16:04,,,,,,
216,7,3,8,2,17444,9/15/17 16:05,,,,,,
216,7,4,6,5,19770,9/15/17 16:05,,,,,,
217,1,0,2,4,39202,9/15/17 14:51,,,,,,
217,1,1,4,8,17327,9/15/17 14:51,,,,,,
217,0,2,6,1,9715,9/15/17 14:52,,,,,,
217,0,3,5,6,8830,9/15/17 14:52,,,,,,
217,0,4,9,5,7516,9/15/17 14:52,,,,,,
218,4,0,8,4,43940,9/15/17 16:07,,,,,,
218,8,1,3,10,16731,9/15/17 16:07,,,,,,
218,6,2,5,9,16205,9/15/17 16:07,,,,,,
218,6,3,1,6,15215,9/15/17 16:08,,,,,,
218,0,4,10,1,9859,9/15/17 16:08,,,,,,
219,0,0,9,6,38053,9/15/17 16:32,,,,,,
219,0,1,8,1,30147,9/15/17 16:33,,,,,,
219,0,2,3,3,19800,9/15/17 16:33,,,,,,
219,0,3,4,9,13704,9/15/17 16:33,,,,,,
219,0,4,1,4,14124,9/15/17 16:33,,,,,,
220,4,0,2,2,28117,9/15/17 16:22,,,,,,
220,4,1,9,3,17774,9/15/17 16:22,,,,,,
220,4,2,10,1,10800,9/15/17 16:22,,,,,,
220,4,3,5,9,15491,9/15/17 16:22,,,,,,
220,4,4,1,6,7068,9/15/17 16:22,,,,,,
221,4,0,10,10,53702,9/15/17 15:10,,,,,,
221,6,1,3,4,16341,9/15/17 15:10,,,,,,
221,7,2,1,3,26491,9/15/17 15:10,,,,,,
221,4,3,9,9,6676,9/15/17 15:10,,,,,,
221,7,4,2,6,7282,9/15/17 15:11,,,,,,
222,3,0,9,9,38058,9/15/17 15:53,,,,,,
222,2,1,2,2,27776,9/15/17 15:54,,,,,,
222,2,2,6,4,17636,9/15/17 15:54,,,,,,
222,2,3,3,10,19362,9/15/17 15:54,,,,,,
222,2,4,5,8,6436,9/15/17 15:54,,,,,,
223,4,0,10,6,1081869,9/15/17 16:34,,,,,,
223,4,1,5,4,26268,9/15/17 16:35,,,,,,
223,4,2,1,1,8754,9/15/17 16:35,,,,,,
223,4,3,6,9,10707,9/15/17 16:35,,,,,,
223,4,4,9,10,5662,9/15/17 16:35,,,,,,
224,8,0,7,10,68083,9/15/17 16:10,,,,,,
224,8,1,8,6,17601,9/15/17 16:10,,,,,,
224,8,2,9,8,11860,9/15/17 16:10,,,,,,
224,8,3,2,1,6726,9/15/17 16:11,,,,,,
224,8,4,5,9,9922,9/15/17 16:11,,,,,,
225,8,0,9,10,24211,9/15/17 16:16,,,,,,
225,2,1,6,4,20387,9/15/17 16:17,,,,,,
225,1,2,8,1,14279,9/15/17 16:17,,,,,,
225,7,3,3,9,8581,9/15/17 16:17,,,,,,
225,1,4,7,2,8464,9/15/17 16:17,,,,,,
226,4,0,9,6,66132,9/15/17 14:14,,,,,,
226,4,1,4,9,26400,9/15/17 14:14,,,,,,
226,4,2,10,10,19386,9/15/17 14:15,,,,,,
226,4,3,8,2,20553,9/15/17 14:15,,,,,,
226,4,4,7,7,17918,9/15/17 14:15,,,,,,
227,6,0,2,5,89980,9/15/17 15:41,,,,,,
227,5,1,8,9,58037,9/15/17 15:42,,,,,,
227,2,2,6,3,10244,9/15/17 15:42,,,,,,
227,0,3,3,1,8408,9/15/17 15:42,,,,,,
227,3,4,5,2,6315,9/15/17 15:42,,,,,,
228,8,0,7,7,16612,9/15/17 16:41,,,,,,
228,8,1,6,8,18293,9/15/17 16:42,,,,,,
228,6,2,8,9,8156,9/15/17 16:42,,,,,,
228,2,3,9,5,4954,9/15/17 16:42,,,,,,
228,0,4,10,3,4261,9/15/17 16:42,,,,,,
229,5,0,5,8,21899,9/15/17 16:30,,,,,,
229,4,1,4,7,24092,9/15/17 16:30,,,,,,
229,0,2,10,5,8626,9/15/17 16:30,,,,,,
229,7,3,2,10,11036,9/15/17 16:30,,,,,,
229,5,4,3,6,9577,9/15/17 16:31,,,,,,
230,6,0,3,8,17371,9/15/17 14:35,,,,,,
230,3,1,7,5,15402,9/15/17 14:35,,,,,,
230,1,2,4,2,6594,9/15/17 14:35,,,,,,
230,5,3,10,10,8415,9/15/17 14:35,,,,,,
230,7,4,2,4,5736,9/15/17 14:36,,,,,,
231,8,0,6,3,51222,9/15/17 13:51,,,,,,
231,8,1,7,1,30174,9/15/17 13:52,,,,,,
231,8,2,9,5,10854,9/15/17 13:52,,,,,,
231,8,3,1,10,10679,9/15/17 13:52,,,,,,
231,8,4,4,2,9045,9/15/17 13:52,,,,,,
232,4,0,8,5,8923,9/15/17 17:00,,,,,,
232,4,1,9,1,2179,9/15/17 17:00,,,,,,
232,4,2,5,9,2809,9/15/17 17:00,,,,,,
232,3,3,10,8,1631,9/15/17 17:00,,,,,,
232,4,4,3,6,1876,9/15/17 17:00,,,,,,
233,2,0,3,3,28272,9/15/17 14:55,,,,,,
233,1,1,4,1,16475,9/15/17 14:56,,,,,,
233,2,2,5,2,13197,9/15/17 14:56,,,,,,
233,1,3,9,5,35073,9/15/17 14:57,,,,,,
233,2,4,8,6,11138,9/15/17 14:57,,,,,,
234,5,0,2,4,64344,9/15/17 17:03,,,,,,
234,4,1,5,7,28862,9/15/17 17:03,,,,,,
234,5,2,6,3,16084,9/15/17 17:03,,,,,,
234,4,3,3,2,10503,9/15/17 17:04,,,,,,
234,1,4,1,9,15989,9/15/17 17:04,,,,,,
235,0,0,10,8,33377,9/15/17 14:23,,,,,,
235,7,1,2,6,23762,9/15/17 14:23,,,,,,
235,5,2,6,7,13148,9/15/17 14:23,,,,,,
235,5,3,9,5,2356,9/15/17 14:23,,,,,,
235,6,4,4,9,16128,9/15/17 14:24,,,,,,
236,6,0,3,9,22804,9/15/17 14:11,,,,,,
236,5,1,7,6,19419,9/15/17 14:11,,,,,,
236,2,2,8,5,259998,9/15/17 14:15,,,,,,
236,3,3,4,1,7998,9/15/17 14:15,,,,,,
236,4,4,6,4,9477,9/15/17 14:16,,,,,,
237,6,0,1,9,64441,9/15/17 14:18,,,,,,
237,6,1,5,8,53795,9/15/17 14:19,,,,,,
237,7,2,8,3,35344,9/15/17 14:19,,,,,,
237,4,3,4,7,30657,9/15/17 14:20,,,,,,
237,8,4,10,10,56366,9/15/17 14:21,,,,,,
238,1,0,9,3,28263,9/15/17 16:58,,,,,,
238,1,1,5,6,9018,9/15/17 16:58,,,,,,
238,1,2,1,8,4893,9/15/17 16:58,,,,,,
238,1,3,7,5,6921,9/15/17 16:58,,,,,,
238,1,4,4,9,4407,9/15/17 16:58,,,,,,
239,5,0,5,9,23203,9/15/17 14:49,,,,,,
239,4,1,6,3,12872,9/15/17 14:49,,,,,,
239,7,2,2,2,9092,9/15/17 14:49,,,,,,
239,1,3,7,1,11891,9/15/17 14:49,,,,,,
239,8,4,10,10,9660,9/15/17 14:50,,,,,,
240,8,0,8,10,23337,9/15/17 17:20,,,,,,
240,4,1,9,6,10635,9/15/17 17:20,,,,,,
240,0,2,5,1,23666,9/15/17 17:21,,,,,,
240,0,3,3,3,10901,9/15/17 17:21,,,,,,
240,2,4,7,8,8180,9/15/17 17:21,,,,,,
241,4,0,1,3,23586,9/15/17 17:19,,,,,,
241,4,1,4,6,8786,9/15/17 17:19,,,,,,
241,4,2,2,10,12471,9/15/17 17:19,,,,,,
241,0,3,10,7,19836,9/15/17 17:19,,,,,,
241,4,4,6,5,178568,9/15/17 17:22,,,,,,
242,1,0,9,1,2403438,9/15/17 17:22,,,,,,
242,8,1,7,10,13586,9/15/17 17:22,,,,,,
242,5,2,3,2,50800,9/15/17 17:23,,,,,,
242,6,3,8,9,18390,9/15/17 17:23,,,,,,
242,0,4,10,5,3647,9/15/17 17:23,,,,,,
243,4,0,10,6,61957,9/15/17 16:14,,,,,,
243,3,1,7,2,45264,9/15/17 16:15,,,,,,
243,3,2,8,7,96394,9/15/17 16:16,,,,,,
243,8,3,2,10,16537,9/15/17 16:16,,,,,,
243,4,4,3,5,30537,9/15/17 16:17,,,,,,
244,6,0,5,9,27787,9/15/17 14:14,,,,,,
244,3,1,7,3,19465,9/15/17 14:14,,,,,,
244,3,2,9,4,10964,9/15/17 14:15,,,,,,
244,8,3,1,5,9491,9/15/17 14:15,,,,,,
244,3,4,3,1,14359,9/15/17 14:15,,,,,,
245,0,0,5,4,44247,9/15/17 13:49,,,,,,
245,0,1,8,8,14143,9/15/17 13:49,,,,,,
245,0,2,7,1,5685,9/15/17 13:49,,,,,,
245,0,3,2,10,3011,9/15/17 13:49,,,,,,
245,0,4,9,2,3627,9/15/17 13:49,,,,,,
246,8,0,1,7,40456,9/15/17 17:51,,,,,,
246,8,1,9,5,13290,9/15/17 17:51,,,,,,
246,8,2,3,1,13916,9/15/17 17:52,,,,,,
246,5,3,4,6,4419,9/15/17 17:52,,,,,,
246,4,4,7,10,2803,9/15/17 17:52,,,,,,
247,1,0,5,8,39617,9/15/17 16:45,,,,,,
247,1,1,9,2,20302,9/15/17 16:45,,,,,,
247,0,2,10,9,15528,9/15/17 16:45,,,,,,
247,1,3,4,3,21163,9/15/17 16:46,,,,,,
247,1,4,3,7,10495,9/15/17 16:46,,,,,,
248,0,0,8,1,25723,9/15/17 14:42,,,,,,
248,0,1,3,3,14706,9/15/17 14:42,,,,,,
248,5,2,4,10,14059,9/15/17 14:42,,,,,,
248,0,3,10,8,10267,9/15/17 14:43,,,,,,
248,8,4,2,9,13176,9/15/17 14:43,,,,,,
249,1,0,2,4,66891,9/15/17 17:06,,,,,,
249,1,1,8,5,29817,9/15/17 17:06,,,,,,
249,1,2,9,6,11540,9/15/17 17:06,,,,,,
249,1,3,5,7,10497,9/15/17 17:07,,,,,,
249,1,4,1,2,26247,9/15/17 17:07,,,,,,
250,1,0,1,9,55114,9/15/17 15:28,,,,,,
250,1,1,2,8,31806,9/15/17 15:28,,,,,,
250,0,2,9,7,26845,9/15/17 15:29,,,,,,
250,0,3,3,5,11398,9/15/17 15:29,,,,,,
250,0,4,5,4,6789,9/15/17 15:29,,,,,,
251,0,0,3,7,33201,9/15/17 16:25,,,,,,
251,0,1,10,9,12242,9/15/17 16:25,,,,,,
251,0,2,8,3,16012,9/15/17 16:25,,,,,,
251,4,3,5,6,9533,9/15/17 16:26,,,,,,
251,3,4,7,4,5968,9/15/17 16:26,,,,,,
252,7,0,5,6,53349,9/15/17 15:44,,,,,,
252,4,1,7,10,20201,9/15/17 15:44,,,,,,
252,8,2,10,9,8926,9/15/17 15:45,,,,,,
252,5,3,2,1,10378,9/15/17 15:45,,,,,,
252,4,4,3,4,7336,9/15/17 15:45,,,,,,
253,7,0,1,5,62744,9/15/17 15:11,,,,,,
253,4,1,8,7,30995,9/15/17 15:12,,,,,,
253,2,2,9,4,19673,9/15/17 15:12,,,,,,
253,7,3,2,8,34534,9/15/17 15:13,,,,,,
253,0,4,10,2,12958,9/15/17 15:13,,,,,,
254,0,0,2,2,34660,9/15/17 16:09,,,,,,
254,0,1,8,5,9764,9/15/17 16:09,,,,,,
254,0,2,5,8,12108,9/15/17 16:09,,,,,,
254,0,3,7,7,9486,9/15/17 16:09,,,,,,
254,0,4,1,9,10029,9/15/17 16:10,,,,,,
255,6,0,4,1,3462,9/15/17 16:16,,,,,,
255,2,1,3,6,1386,9/15/17 16:16,,,,,,
255,5,2,9,10,1520,9/15/17 16:16,,,,,,
255,2,3,8,5,1424,9/15/17 16:16,,,,,,
255,6,4,2,7,4675,9/15/17 16:16,,,,,,
256,7,0,2,5,45419,9/15/17 14:39,,,,,,
256,1,1,1,1,40923,9/15/17 14:39,,,,,,
256,1,2,6,2,40221,9/15/17 14:40,,,,,,
256,1,3,10,9,26550,9/15/17 14:40,,,,,,
256,1,4,4,7,23897,9/15/17 14:41,,,,,,
257,8,0,4,7,83500,9/15/17 16:15,,,,,,
257,8,1,6,10,34912,9/15/17 16:16,,,,,,
257,8,2,3,3,15246,9/15/17 16:16,,,,,,
257,8,3,2,1,10729,9/15/17 16:16,,,,,,
257,8,4,1,4,8118,9/15/17 16:17,,,,,,
258,0,0,1,6,40412,9/15/17 13:51,,,,,,
258,0,1,6,7,22638,9/15/17 13:52,,,,,,
258,0,2,3,4,10149,9/15/17 13:52,,,,,,
258,0,3,8,1,11118,9/15/17 13:52,,,,,,
258,0,4,10,5,5455,9/15/17 13:52,,,,,,
259,8,0,4,4,32700,9/15/17 13:55,,,,,,
259,8,1,9,9,11864,9/15/17 13:55,,,,,,
259,8,2,1,2,6868,9/15/17 13:55,,,,,,
259,8,3,8,8,6779,9/15/17 13:55,,,,,,
259,8,4,2,3,3980,9/15/17 13:55,,,,,,
260,1,0,9,3,1225294,9/15/17 17:48,,,,,,
260,0,1,2,1,21554,9/15/17 17:48,,,,,,
260,2,2,8,6,24238,9/15/17 17:48,,,,,,
260,3,3,6,8,14447,9/15/17 17:49,,,,,,
260,5,4,3,5,18894,9/15/17 17:49,,,,,,
261,2,0,7,10,35889,9/15/17 14:47,,,,,,
261,1,1,10,3,24716,9/15/17 14:48,,,,,,
261,5,2,6,1,12382,9/15/17 14:48,,,,,,
261,5,3,5,8,14170,9/15/17 14:48,,,,,,
261,4,4,4,2,8845,9/15/17 14:48,,,,,,
262,0,0,10,8,42157,9/15/17 15:42,,,,,,
262,7,1,5,9,37695,9/15/17 15:43,,,,,,
262,8,2,1,3,13229,9/15/17 15:43,,,,,,
262,4,3,4,2,14946,9/15/17 15:43,,,,,,
262,8,4,2,10,9998,9/15/17 15:43,,,,,,
263,0,0,3,1,34957,9/15/17 16:17,,,,,,
263,7,1,7,9,12538,9/15/17 16:18,,,,,,
263,5,2,2,8,8626,9/15/17 16:18,,,,,,
263,5,3,5,6,13879,9/15/17 16:18,,,,,,
263,7,4,6,7,5482,9/15/17 16:18,,,,,,
264,0,0,10,10,22723,9/15/17 17:20,,,,,,
264,2,1,8,2,20828,9/15/17 17:20,,,,,,
264,4,2,9,9,9836,9/15/17 17:20,,,,,,
264,4,3,5,6,5762,9/15/17 17:20,,,,,,
264,3,4,4,5,4324,9/15/17 17:21,,,,,,
265,7,0,1,1,102819,9/15/17 16:23,,,,,,
265,7,1,4,3,40764,9/15/17 16:23,,,,,,
265,7,2,9,10,23831,9/15/17 16:24,,,,,,
265,7,3,3,7,25914,9/15/17 16:24,,,,,,
265,7,4,5,5,14604,9/15/17 16:24,,,,,,
266,4,0,6,1,53035,9/15/17 17:11,,,,,,
267,5,0,3,2,28307,9/15/17 14:25,,,,,,
267,6,1,6,4,17522,9/15/17 14:25,,,,,,
267,3,2,7,8,7114,9/15/17 14:25,,,,,,
267,7,3,9,5,5795,9/15/17 14:25,,,,,,
267,1,4,2,1,9661,9/15/17 14:25,,,,,,
268,4,0,7,9,28558,9/15/17 14:23,,,,,,
268,4,1,9,7,15038,9/15/17 14:23,,,,,,
268,4,2,5,8,11583,9/15/17 14:23,,,,,,
268,4,3,6,2,4596,9/15/17 14:23,,,,,,
268,4,4,10,10,9004,9/15/17 14:23,,,,,,
269,0,0,4,4,20996,9/15/17 14:09,,,,,,
269,0,1,10,3,12618,9/15/17 14:09,,,,,,
269,0,2,7,1,9250,9/15/17 14:10,,,,,,
269,0,3,6,10,82512,9/15/17 14:11,,,,,,
269,1,4,2,2,7660,9/15/17 14:11,,,,,,
270,8,0,3,6,41387,9/15/17 14:25,,,,,,
270,8,1,5,4,28746,9/15/17 14:26,,,,,,
270,4,2,10,1,19730,9/15/17 14:26,,,,,,
270,8,3,1,5,16784,9/15/17 14:26,,,,,,
270,8,4,7,8,13822,9/15/17 14:27,,,,,,
271,0,0,6,7,49245,9/15/17 16:33,,,,,,
271,0,1,10,2,13448,9/15/17 16:33,,,,,,
271,0,2,5,6,9432,9/15/17 16:33,,,,,,
271,0,3,3,9,17987,9/15/17 16:33,,,,,,
271,0,4,8,3,6616,9/15/17 16:34,,,,,,
272,7,0,8,4,23426,9/15/17 15:49,,,,,,
272,3,1,1,6,23284,9/15/17 15:49,,,,,,
272,3,2,4,9,3482,9/15/17 15:49,,,,,,
272,6,3,5,2,6189,9/15/17 15:49,,,,,,
272,4,4,3,10,44977,9/15/17 15:50,,,,,,
273,2,0,4,8,19362,9/15/17 14:09,,,,,,
273,0,1,10,7,6348,9/15/17 14:09,,,,,,
273,5,2,2,3,3369,9/15/17 14:09,,,,,,
273,3,3,3,1,5346,9/15/17 14:09,,,,,,
273,2,4,7,2,44002,9/15/17 14:10,,,,,,
274,0,0,6,8,45463,9/15/17 15:13,,,,,,
274,0,1,7,2,24633,9/15/17 15:14,,,,,,
274,8,2,2,10,15368,9/15/17 15:14,,,,,,
274,0,3,10,3,8905,9/15/17 15:14,,,,,,
274,0,4,5,4,3874,9/15/17 15:14,,,,,,
275,1,0,6,4,54935,9/15/17 17:26,,,,,,
275,2,1,9,10,22907,9/15/17 17:26,,,,,,
275,3,2,2,7,19884,9/15/17 17:26,,,,,,
275,0,3,7,1,12501,9/15/17 17:27,,,,,,
275,2,4,3,5,20780,9/15/17 17:27,,,,,,
276,0,0,2,8,60178,9/15/17 14:47,,,,,,
276,0,1,10,4,30564,9/15/17 14:47,,,,,,
276,0,2,6,9,44581,9/15/17 14:48,,,,,,
276,0,3,8,7,22227,9/15/17 14:48,,,,,,
276,8,4,3,10,40043,9/15/17 14:49,,,,,,
277,0,0,9,6,19539,9/15/17 17:17,,,,,,
277,0,1,10,7,11476,9/15/17 17:17,,,,,,
277,0,2,4,8,8327,9/15/17 17:17,,,,,,
277,0,3,2,2,6655,9/15/17 17:17,,,,,,
277,0,4,5,9,7225,9/15/17 17:18,,,,,,
278,0,0,8,2,45387,9/15/17 13:53,,,,,,
278,0,1,3,6,25581,9/15/17 13:54,,,,,,
278,0,2,5,5,13112,9/15/17 13:54,,,,,,
278,0,3,9,4,14081,9/15/17 13:54,,,,,,
278,0,4,10,10,12616,9/15/17 13:54,,,,,,
279,2,0,5,3,32303,9/15/17 15:50,,,,,,
279,0,1,4,1,14240,9/15/17 15:50,,,,,,
279,1,2,8,7,12780,9/15/17 15:51,,,,,,
279,4,3,3,2,17542,9/15/17 15:51,,,,,,
279,8,4,1,5,10909,9/15/17 15:51,,,,,,
280,1,0,9,3,201988,9/15/17 17:31,,,,,,
280,0,1,10,6,23067,9/15/17 17:31,,,,,,
280,4,2,3,10,7691,9/15/17 17:31,,,,,,
280,2,3,2,5,7472,9/15/17 17:31,,,,,,
280,6,4,6,9,9047,9/15/17 17:32,,,,,,
281,8,0,6,10,28375,9/15/17 15:28,,,,,,
281,7,1,3,9,24169,9/15/17 15:29,,,,,,
281,3,2,1,1,32519,9/15/17 15:29,,,,,,
281,5,3,8,8,20943,9/15/17 15:30,,,,,,
281,7,4,2,7,10015,9/15/17 15:30,,,,,,
282,8,0,4,6,33866,9/15/17 14:09,,,,,,
282,7,1,6,2,14821,9/15/17 14:09,,,,,,
282,7,2,2,4,6160,9/15/17 14:09,,,,,,
282,7,3,7,9,5027,9/15/17 14:09,,,,,,
282,7,4,9,8,6326,9/15/17 14:09,,,,,,
283,6,0,5,4,32559,9/15/17 17:10,,,,,,
283,7,1,1,1,19438,9/15/17 17:11,,,,,,
283,8,2,3,7,8967,9/15/17 17:11,,,,,,
283,5,3,6,5,5505,9/15/17 17:11,,,,,,
283,6,4,2,3,4872,9/15/17 17:11,,,,,,
284,3,0,9,3,172515,9/15/17 14:37,,,,,,
284,3,1,2,7,12301,9/15/17 14:37,,,,,,
284,3,2,10,2,21368,9/15/17 14:38,,,,,,
284,3,3,8,4,2217,9/15/17 14:38,,,,,,
284,3,4,7,1,4049,9/15/17 14:38,,,,,,
285,2,0,10,7,40282,9/15/17 13:45,,,,,,
285,0,1,3,10,18799,9/15/17 13:45,,,,,,
285,0,2,1,6,14306,9/15/17 13:46,,,,,,
285,0,3,9,9,9885,9/15/17 13:46,,,,,,
285,0,4,4,2,14828,9/15/17 13:46,,,,,,
286,0,0,10,3,26374,9/15/17 15:50,,,,,,
286,8,1,7,10,18501,9/15/17 15:50,,,,,,
286,4,2,9,4,12818,9/15/17 15:51,,,,,,
286,4,3,5,6,6253,9/15/17 15:51,,,,,,
286,4,4,6,9,7532,9/15/17 15:51,,,,,,
287,0,0,6,8,20987,9/15/17 15:35,,,,,,
287,0,1,7,3,10218,9/15/17 15:35,,,,,,
287,0,2,5,2,3501,9/15/17 15:35,,,,,,
287,0,3,3,7,2620,9/15/17 15:35,,,,,,
287,0,4,8,1,2573,9/15/17 15:35,,,,,,
288,6,0,3,3,38061,9/15/17 14:27,,,,,,
288,6,1,5,8,16389,9/15/17 14:27,,,,,,
288,1,2,8,1,13015,9/15/17 14:27,,,,,,
288,8,3,1,9,8118,9/15/17 14:27,,,,,,
288,5,4,7,4,10001,9/15/17 14:28,,,,,,
289,7,0,10,8,31054,9/15/17 17:20,,,,,,
289,7,1,2,6,8366,9/15/17 17:20,,,,,,
289,7,2,8,1,5396,9/15/17 17:20,,,,,,
289,6,3,9,7,22880,9/15/17 17:20,,,,,,
289,6,4,5,9,3302,9/15/17 17:20,,,,,,
290,3,0,3,4,27215,9/15/17 17:20,,,,,,
290,3,1,5,3,15207,9/15/17 17:21,,,,,,
291,7,0,1,4,21066,9/15/17 17:12,,,,,,
291,4,1,3,1,7790,9/15/17 17:12,,,,,,
291,2,2,8,3,5111,9/15/17 17:12,,,,,,
291,4,3,6,7,4261,9/15/17 17:13,,,,,,
291,4,4,5,8,5891,9/15/17 17:13,,,,,,
292,4,0,6,8,20432,9/15/17 14:39,,,,,,
292,4,1,9,3,14073,9/15/17 14:40,,,,,,
292,4,2,3,7,10289,9/15/17 14:40,,,,,,
292,4,3,7,2,6390,9/15/17 14:40,,,,,,
292,4,4,1,9,14495,9/15/17 14:40,,,,,,
293,3,0,3,8,23674,9/15/17 14:36,,,,,,
293,8,1,7,10,7943,9/15/17 14:36,,,,,,
293,1,2,2,3,8235,9/15/17 14:37,,,,,,
293,1,3,9,5,9066,9/15/17 14:37,,,,,,
293,1,4,4,2,5874,9/15/17 14:37,,,,,,
294,7,0,9,5,28776,9/15/17 14:48,,,,,,
294,3,1,6,10,29590,9/15/17 14:49,,,,,,
294,0,2,1,4,10081,9/15/17 14:49,,,,,,
294,2,3,3,9,9612,9/15/17 14:49,,,,,,
294,0,4,2,1,11557,9/15/17 14:49,,,,,,
295,5,0,4,9,20156,9/15/17 15:27,,,,,,
295,5,1,6,5,10695,9/15/17 15:27,,,,,,
295,3,2,1,8,16614,9/15/17 15:27,,,,,,
295,4,3,9,7,7130,9/15/17 15:27,,,,,,
295,5,4,3,6,8298,9/15/17 15:27,,,,,,
296,2,0,8,1,45583,9/15/17 14:58,,,,,,
296,3,1,2,4,22951,9/15/17 14:58,,,,,,
296,7,2,9,10,26855,9/15/17 14:59,,,,,,
296,1,3,1,2,17844,9/15/17 14:59,,,,,,
296,1,4,10,7,12234,9/15/17 14:59,,,,,,
297,8,0,7,3,14698,9/15/17 16:52,,,,,,
297,8,1,1,10,10466,9/15/17 16:52,,,,,,
297,8,2,2,9,3364,9/15/17 16:52,,,,,,
297,8,3,5,7,10773,9/15/17 16:52,,,,,,
297,7,4,3,1,2686,9/15/17 16:52,,,,,,
298,8,0,8,9,17329,9/15/17 17:17,,,,,,
298,6,1,4,8,14705,9/15/17 17:17,,,,,,
298,4,2,7,3,5275,9/15/17 17:17,,,,,,
298,1,3,1,5,4697,9/15/17 17:17,,,,,,
298,5,4,6,10,4797,9/15/17 17:17,,,,,,
299,5,0,5,4,57890,9/15/17 13:45,,,,,,
299,6,1,9,9,34529,9/15/17 13:45,,,,,,
299,2,2,10,6,21022,9/15/17 13:46,,,,,,
299,8,3,1,10,17845,9/15/17 13:46,,,,,,
299,5,4,7,3,17075,9/15/17 13:46,,,,,,
300,4,0,3,3,46156,9/15/17 14:25,,,,,,
300,5,1,5,4,16374,9/15/17 14:25,,,,,,
300,7,2,10,1,14306,9/15/17 14:25,,,,,,
300,6,3,9,10,12595,9/15/17 14:26,,,,,,
300,7,4,2,7,9379,9/15/17 14:26,,,,,,
301,3,0,9,4,31894,9/15/17 15:48,,,,,,
301,3,1,7,8,7799,9/15/17 15:48,,,,,,
301,5,2,1,6,5713,9/15/17 15:48,,,,,,
301,4,3,6,7,4952,9/15/17 15:48,,,,,,
301,2,4,5,3,4517,9/15/17 15:48,,,,,,
302,2,0,5,4,39947,9/15/17 13:37,,,,,,
302,8,1,10,9,7250,9/15/17 13:37,,,,,,
302,5,2,9,8,7574,9/15/17 13:38,,,,,,
302,1,3,3,5,3268,9/15/17 13:38,,,,,,
302,0,4,2,10,2548,9/15/17 13:38,,,,,,
303,1,0,3,1,31068,9/15/17 13:47,,,,,,
303,1,1,6,3,16349,9/15/17 13:47,,,,,,
303,6,2,2,4,13036,9/15/17 13:47,,,,,,
303,3,3,5,6,9878,9/15/17 13:47,,,,,,
303,4,4,9,9,6278,9/15/17 13:47,,,,,,
304,8,0,4,8,93585,9/15/17 16:04,,,,,,
304,0,1,8,4,28222,9/15/17 16:04,,,,,,
304,0,2,10,5,14715,9/15/17 16:05,,,,,,
304,0,3,7,3,12418,9/15/17 16:05,,,,,,
304,0,4,9,2,13702,9/15/17 16:05,,,,,,
305,5,0,9,5,6843,9/15/17 16:28,,,,,,
305,2,1,6,2,3258,9/15/17 16:28,,,,,,
305,6,2,7,9,2108,9/15/17 16:28,,,,,,
305,0,3,2,1,3558,9/15/17 16:28,,,,,,
305,8,4,10,8,4820,9/15/17 16:28,,,,,,
306,8,0,5,7,25787,9/15/17 16:11,,,,,,
306,8,1,6,4,30214,9/15/17 16:12,,,,,,
306,8,2,8,9,12932,9/15/17 16:12,,,,,,
306,8,3,9,8,12191,9/15/17 16:12,,,,,,
306,8,4,7,3,15161,9/15/17 16:12,,,,,,
307,4,0,6,3,27299,9/15/17 15:40,,,,,,
307,4,1,8,8,12434,9/15/17 15:41,,,,,,
307,4,2,4,4,19988,9/15/17 15:41,,,,,,
307,2,3,9,1,6874,9/15/17 15:41,,,,,,
307,4,4,5,6,5197,9/15/17 15:41,,,,,,
308,0,0,6,4,44527,9/15/17 16:15,,,,,,
308,0,1,8,10,25036,9/15/17 16:15,,,,,,
308,0,2,7,5,12149,9/15/17 16:15,,,,,,
308,0,3,9,2,8719,9/15/17 16:15,,,,,,
308,0,4,4,6,9884,9/15/17 16:16,,,,,,
309,6,0,10,10,59488,9/15/17 15:39,,,,,,
309,5,1,4,2,41990,9/15/17 15:39,,,,,,
309,4,2,6,1,10690,9/15/17 15:39,,,,,,
309,6,3,7,4,5780,9/15/17 15:40,,,,,,
309,0,4,2,5,4756,9/15/17 15:40,,,,,,
310,5,0,7,8,48767,9/15/17 17:16,,,,,,
310,6,1,4,4,25230,9/15/17 17:16,,,,,,
310,7,2,1,9,9920,9/15/17 17:16,,,,,,
310,7,3,3,5,11743,9/15/17 17:16,,,,,,
310,4,4,5,2,5321,9/15/17 17:17,,,,,,
311,8,0,3,1,34598,9/15/17 17:03,,,,,,
311,8,1,7,10,20759,9/15/17 17:04,,,,,,
311,8,2,1,6,10671,9/15/17 17:04,,,,,,
311,8,3,9,5,5549,9/15/17 17:04,,,,,,
311,8,4,8,3,7173,9/15/17 17:04,,,,,,
312,8,0,1,4,27235,9/15/17 14:36,,,,,,
312,8,1,3,10,27985,9/15/17 14:37,,,,,,
312,8,2,4,7,15953,9/15/17 14:37,,,,,,
312,3,3,6,5,15443,9/15/17 14:37,,,,,,
312,1,4,8,6,10622,9/15/17 14:37,,,,,,
313,0,0,5,6,43681,9/15/17 17:00,,,,,,
313,0,1,6,7,22568,9/15/17 17:00,,,,,,
313,0,2,8,4,12681,9/15/17 17:00,,,,,,
313,0,3,1,9,7237,9/15/17 17:01,,,,,,
313,0,4,7,8,4578,9/15/17 17:01,,,,,,
314,0,0,9,3,55332,9/15/17 14:13,,,,,,
314,0,1,2,4,25999,9/15/17 14:13,,,,,,
314,0,2,10,10,15785,9/15/17 14:14,,,,,,
314,0,3,6,9,12964,9/15/17 14:14,,,,,,
314,0,4,3,7,15078,9/15/17 14:14,,,,,,
315,0,0,6,4,30342,9/15/17 14:48,,,,,,
315,0,1,9,1,17697,9/15/17 14:48,,,,,,
315,0,2,3,3,10671,9/15/17 14:49,,,,,,
315,0,3,5,5,7270,9/15/17 14:49,,,,,,
315,0,4,2,8,12874,9/15/17 14:49,,,,,,
316,3,0,7,6,47014,9/15/17 15:52,,,,,,
316,3,1,2,8,47232,9/15/17 15:52,,,,,,
316,3,2,5,3,11045,9/15/17 15:53,,,,,,
316,3,3,9,5,13021,9/15/17 15:53,,,,,,
316,3,4,8,7,9119,9/15/17 15:53,,,,,,
317,6,0,7,2,51594,9/15/17 15:52,,,,,,
317,6,1,4,7,24867,9/15/17 15:53,,,,,,
317,6,2,8,8,18816,9/15/17 15:53,,,,,,
317,6,3,2,5,16261,9/15/17 15:53,,,,,,
317,6,4,5,3,11727,9/15/17 15:54,,,,,,
318,1,0,10,9,28681,9/15/17 13:43,,,,,,
318,3,1,3,6,25615,9/15/17 13:44,,,,,,
318,0,2,1,8,10536,9/15/17 13:44,,,,,,
318,2,3,4,1,4905,9/15/17 13:44,,,,,,
318,2,4,7,2,2083,9/15/17 13:44,,,,,,
319,0,0,3,8,33929,9/15/17 14:49,,,,,,
319,0,1,4,6,21783,9/15/17 14:49,,,,,,
319,0,2,7,1,9609,9/15/17 14:49,,,,,,
319,0,3,6,4,11219,9/15/17 14:50,,,,,,
319,8,4,9,10,11110,9/15/17 14:50,,,,,,
320,7,0,8,6,27416,9/15/17 13:51,,,,,,
320,1,1,2,2,8560,9/15/17 13:51,,,,,,
320,0,2,3,9,266771,9/15/17 13:55,,,,,,
320,0,3,4,4,9004,9/15/17 13:55,,,,,,
320,0,4,1,1,17600,9/15/17 13:56,,,,,,
321,4,0,2,4,26980,9/15/17 14:55,,,,,,
321,3,1,10,9,26277,9/15/17 14:56,,,,,,
321,1,2,4,1,10085,9/15/17 14:56,,,,,,
321,2,3,8,10,22292,9/15/17 14:56,,,,,,
321,1,4,5,3,14196,9/15/17 14:57,,,,,,
322,4,0,7,9,39239,9/15/17 14:01,,,,,,
322,2,1,10,3,16012,9/15/17 14:02,,,,,,
322,4,2,4,7,8844,9/15/17 14:02,,,,,,
322,5,3,8,10,8022,9/15/17 14:02,,,,,,
322,4,4,6,5,8301,9/15/17 14:02,,,,,,
323,5,0,8,7,25300,9/15/17 16:22,,,,,,
323,5,1,2,9,14570,9/15/17 16:23,,,,,,
323,2,2,5,1,12508,9/15/17 16:23,,,,,,
323,2,3,7,4,9301,9/15/17 16:23,,,,,,
323,6,4,3,6,11436,9/15/17 16:23,,,,,,
324,4,0,6,6,37747,9/15/17 13:48,,,,,,
324,4,1,1,9,21496,9/15/17 13:48,,,,,,
324,4,2,5,4,12155,9/15/17 13:49,,,,,,
324,4,3,2,8,12058,9/15/17 13:49,,,,,,
324,4,4,3,3,7377,9/15/17 13:49,,,,,,
325,4,0,10,10,33739,9/15/17 15:45,,,,,,
325,4,1,6,5,17353,9/15/17 15:45,,,,,,
325,2,2,9,1,14402,9/15/17 15:45,,,,,,
325,3,3,7,2,8349,9/15/17 15:46,,,,,,
325,5,4,2,3,11098,9/15/17 15:46,,,,,,
326,6,0,10,3,54802,9/15/17 14:58,,,,,,
326,4,1,3,9,35971,9/15/17 14:59,,,,,,
326,6,2,5,6,3992,9/15/17 14:59,,,,,,
326,3,3,6,5,4056,9/15/17 14:59,,,,,,
326,5,4,7,8,7482,9/15/17 14:59,,,,,,
327,6,0,10,2,80931,9/15/17 15:31,,,,,,
327,7,1,2,7,12041,9/15/17 15:31,,,,,,
327,7,2,7,5,5405,9/15/17 15:31,,,,,,
327,6,3,4,1,4396,9/15/17 15:31,,,,,,
327,5,4,6,9,5078,9/15/17 15:31,,,,,,
328,4,0,5,5,35245,9/15/17 16:40,,,,,,
328,4,1,3,2,11706,9/15/17 16:40,,,,,,
328,8,2,9,1,10254,9/15/17 16:40,,,,,,
328,0,3,1,9,9948,9/15/17 16:41,,,,,,
328,0,4,2,7,11457,9/15/17 16:41,,,,,,
329,1,0,2,1,20132,9/15/17 17:24,,,,,,
329,1,1,6,4,12706,9/15/17 17:24,,,,,,
329,1,2,9,8,7499,9/15/17 17:24,,,,,,
329,8,3,1,10,13333,9/15/17 17:24,,,,,,
329,1,4,4,7,8269,9/15/17 17:24,,,,,,
330,8,0,5,4,24794,9/15/17 16:04,,,,,,
330,8,1,10,6,7762,9/15/17 16:04,,,,,,
330,8,2,6,7,4940,9/15/17 16:04,,,,,,
330,1,3,1,5,8104,9/15/17 16:04,,,,,,
330,2,4,3,3,2933,9/15/17 16:04,,,,,,
331,4,0,10,6,57385,9/15/17 13:45,,,,,,
331,5,1,8,8,21629,9/15/17 13:46,,,,,,
331,4,2,6,7,20392,9/15/17 13:46,,,,,,
331,6,3,2,3,18327,9/15/17 13:46,,,,,,
331,6,4,3,5,11721,9/15/17 13:47,,,,,,
332,5,0,7,2,64054,9/15/17 17:01,,,,,,
332,7,1,5,9,22350,9/15/17 17:01,,,,,,
332,1,2,9,4,18511,9/15/17 17:02,,,,,,
332,6,3,3,3,22407,9/15/17 17:02,,,,,,
332,7,4,1,6,12783,9/15/17 17:02,,,,,,
333,3,0,5,7,59620,9/15/17 16:30,,,,,,
333,3,1,3,2,15526,9/15/17 16:31,,,,,,
333,0,2,10,10,17422,9/15/17 16:31,,,,,,
333,3,3,7,1,9631,9/15/17 16:31,,,,,,
333,3,4,6,9,7074,9/15/17 16:31,,,,,,
334,7,0,2,5,32564,9/15/17 16:55,,,,,,
334,0,1,10,7,15041,9/15/17 16:55,,,,,,
334,0,2,7,1,10293,9/15/17 16:55,,,,,,
334,1,3,4,8,11960,9/15/17 16:55,,,,,,
334,6,4,3,3,13010,9/15/17 16:56,,,,,,
335,1,0,5,5,30600,9/15/17 17:01,,,,,,
335,6,1,3,9,16114,9/15/17 17:01,,,,,,
335,0,2,8,1,8627,9/15/17 17:01,,,,,,
335,0,3,10,10,9964,9/15/17 17:02,,,,,,
335,2,4,4,2,13310,9/15/17 17:02,,,,,,
336,8,0,9,10,48029,9/15/17 16:07,,,,,,
336,4,1,1,1,20303,9/15/17 16:07,,,,,,
336,5,2,2,4,15306,9/15/17 16:07,,,,,,
336,4,3,3,3,11037,9/15/17 16:08,,,,,,
336,4,4,6,6,12890,9/15/17 16:08,,,,,,
336,3,0,7,3,19399,9/15/17 16:09,,,,,,
336,7,1,1,7,7843,9/15/17 16:10,,,,,,
336,3,2,4,2,7271,9/15/17 16:10,,,,,,
336,4,3,6,6,3924,9/15/17 16:10,,,,,,
336,0,4,10,8,5964,9/15/17 16:10,,,,,,
337,0,0,7,1,54670,9/15/17 15:11,,,,,,
337,0,1,5,7,18545,9/15/17 15:11,,,,,,
337,8,2,8,10,18572,9/15/17 15:11,,,,,,
337,0,3,1,6,16624,9/15/17 15:12,,,,,,
337,0,4,2,3,10018,9/15/17 15:12,,,,,,
338,4,0,1,7,32871,9/15/17 14:06,,,,,,
338,4,1,6,8,17007,9/15/17 14:07,,,,,,
338,4,2,7,10,12316,9/15/17 14:07,,,,,,
338,4,3,9,5,8442,9/15/17 14:07,,,,,,
338,4,4,8,9,9474,9/15/17 14:07,,,,,,
339,8,0,5,7,78101,9/15/17 15:18,,,,,,
339,0,1,3,8,72571,9/15/17 15:19,,,,,,
339,0,2,8,4,42061,9/15/17 15:20,,,,,,
339,0,3,9,9,34494,9/15/17 15:20,,,,,,
339,0,4,10,5,26446,9/15/17 15:21,,,,,,
340,0,0,8,1,21313,9/15/17 15:25,,,,,,
340,4,1,9,5,6371,9/15/17 15:25,,,,,,
340,8,2,4,10,7312,9/15/17 15:25,,,,,,
340,8,3,2,3,7626,9/15/17 15:25,,,,,,
340,1,4,5,2,7507,9/15/17 15:25,,,,,,
341,0,0,5,6,35869,9/15/17 14:30,,,,,,
341,8,1,7,10,14611,9/15/17 14:30,,,,,,
341,0,2,6,8,11714,9/15/17 14:30,,,,,,
341,0,3,3,3,11224,9/15/17 14:30,,,,,,
341,0,4,2,7,8750,9/15/17 14:31,,,,,,
342,2,0,2,9,33681,9/15/17 16:20,,,,,,
342,6,1,8,10,19213,9/15/17 16:20,,,,,,
342,0,2,9,3,14303,9/15/17 16:21,,,,,,
342,1,3,6,8,13043,9/15/17 16:21,,,,,,
342,1,4,3,1,10513,9/15/17 16:21,,,,,,
343,1,0,1,2,32404,9/15/17 14:30,,,,,,
343,6,1,2,9,20438,9/15/17 14:31,,,,,,
343,2,2,9,4,11944,9/15/17 14:31,,,,,,
343,8,3,6,10,15547,9/15/17 14:31,,,,,,
343,1,4,3,6,13614,9/15/17 14:32,,,,,,
344,1,0,4,6,21815,9/15/17 17:04,,,,,,
344,6,1,1,4,12991,9/15/17 17:05,,,,,,
344,1,2,8,3,7495,9/15/17 17:05,,,,,,
344,4,3,5,2,5034,9/15/17 17:05,,,,,,
344,1,4,9,1,8515,9/15/17 17:05,,,,,,
345,0,0,10,8,19401,9/15/17 15:13,,,,,,
345,5,1,8,9,11035,9/15/17 15:13,,,,,,
345,6,2,3,7,9708,9/15/17 15:13,,,,,,
345,8,3,2,10,4628,9/15/17 15:13,,,,,,
345,2,4,7,3,9014,9/15/17 15:14,,,,,,
346,5,0,7,5,32743,9/15/17 16:37,,,,,,
346,1,1,5,1,16192,9/15/17 16:37,,,,,,
346,0,2,6,10,18540,9/15/17 16:37,,,,,,
346,1,3,10,8,13089,9/15/17 16:38,,,,,,
346,7,4,1,4,12263,9/15/17 16:38,,,,,,
347,4,0,7,2,41809,9/15/17 13:47,,,,,,
347,4,1,8,7,19213,9/15/17 13:47,,,,,,
347,4,2,4,9,17635,9/15/17 13:47,,,,,,
347,4,3,9,4,17422,9/15/17 13:48,,,,,,
347,4,4,2,8,10379,9/15/17 13:48,,,,,,
348,7,0,6,2,38018,9/15/17 16:20,,,,,,
348,2,1,3,8,25711,9/15/17 16:20,,,,,,
348,4,2,4,4,19013,9/15/17 16:21,,,,,,
348,7,3,7,7,17217,9/15/17 16:21,,,,,,
348,0,4,1,9,12921,9/15/17 16:21,,,,,,
349,5,0,6,8,36893,9/15/17 15:28,,,,,,
349,8,1,9,7,17112,9/15/17 15:28,,,,,,
349,7,2,8,2,8900,9/15/17 15:29,,,,,,
349,4,3,5,5,8460,9/15/17 15:29,,,,,,
349,3,4,7,6,9086,9/15/17 15:29,,,,,,
350,5,0,1,9,24315,9/15/17 14:01,,,,,,
350,4,1,7,8,8633,9/15/17 14:01,,,,,,
350,2,2,5,2,6913,9/15/17 14:02,,,,,,
350,0,3,10,1,10595,9/15/17 14:02,,,,,,
350,5,4,8,3,15347,9/15/17 14:02,,,,,,
351,6,0,1,3,31943,9/15/17 15:17,,,,,,
351,2,1,5,2,13119,9/15/17 15:17,,,,,,
351,7,2,2,6,13659,9/15/17 15:17,,,,,,
351,5,3,3,4,6069,9/15/17 15:17,,,,,,
351,1,4,6,1,12102,9/15/17 15:17,,,,,,
352,7,0,7,5,65992,9/15/17 13:53,,,,,,
352,7,1,4,2,15556,9/15/17 13:53,,,,,,
352,8,2,10,1,9039,9/15/17 13:53,,,,,,
352,8,3,2,8,12330,9/15/17 13:53,,,,,,
352,8,4,8,6,24719,9/15/17 13:54,,,,,,
353,1,0,3,6,48422,9/15/17 13:44,,,,,,
353,1,1,1,4,36684,9/15/17 13:44,,,,,,
353,8,2,2,10,21185,9/15/17 13:45,,,,,,
353,1,3,8,2,17483,9/15/17 13:45,,,,,,
353,1,4,4,1,13508,9/15/17 13:45,,,,,,
354,8,0,10,5,63574,9/15/17 16:05,,,,,,
354,8,1,1,3,40583,9/15/17 16:06,,,,,,
354,8,2,3,9,26060,9/15/17 16:06,,,,,,
354,8,3,9,6,14696,9/15/17 16:07,,,,,,
354,8,4,7,1,26266,9/15/17 16:07,,,,,,
355,0,0,10,2,47881,9/15/17 16:43,,,,,,
355,4,1,7,5,28270,9/15/17 16:43,,,,,,
355,0,2,9,1,15342,9/15/17 16:43,,,,,,
355,8,3,1,8,16088,9/15/17 16:44,,,,,,
355,4,4,6,7,11763,9/15/17 16:44,,,,,,
356,4,0,6,8,44711,9/15/17 15:55,,,,,,
356,4,1,2,2,18451,9/15/17 15:55,,,,,,
356,8,2,1,10,15957,9/15/17 15:56,,,,,,
356,4,3,7,4,10749,9/15/17 15:56,,,,,,
356,4,4,5,5,8327,9/15/17 15:56,,,,,,
357,1,0,3,6,50205,9/15/17 16:44,,,,,,
357,0,1,4,2,17809,9/15/17 16:44,,,,,,
357,0,2,5,7,26785,9/15/17 16:45,,,,,,
357,0,3,9,9,10134,9/15/17 16:45,,,,,,
357,8,4,6,10,9999,9/15/17 16:45,,,,,,
358,1,0,3,4,28422,9/15/17 16:40,,,,,,
358,7,1,9,2,19887,9/15/17 16:41,,,,,,
358,6,2,7,6,11235,9/15/17 16:41,,,,,,
358,1,3,4,3,5829,9/15/17 16:41,,,,,,
358,2,4,2,10,7398,9/15/17 16:41,,,,,,
359,1,0,10,8,87549,9/15/17 15:35,,,,,,
359,5,1,8,2,43198,9/15/17 15:36,,,,,,
359,4,2,9,3,26966,9/15/17 15:36,,,,,,
359,6,3,7,6,32252,9/15/17 15:37,,,,,,
359,8,4,2,5,26185,9/15/17 15:37,,,,,,
360,2,0,5,3,39547,9/15/17 16:14,,,,,,
360,2,1,10,1,10539,9/15/17 16:14,,,,,,
360,6,2,1,8,5052,9/15/17 16:14,,,,,,
360,4,3,7,9,8066,9/15/17 16:14,,,,,,
360,2,4,9,2,7921,9/15/17 16:15,,,,,,
361,8,0,5,6,86728,9/15/17 15:15,,,,,,
361,8,1,1,10,17112,9/15/17 15:15,,,,,,
361,8,2,9,2,12579,9/15/17 15:15,,,,,,
361,8,3,3,4,40734,9/15/17 15:16,,,,,,
361,8,4,2,9,13823,9/15/17 15:16,,,,,,
362,4,0,2,4,30536,9/15/17 14:28,,,,,,
362,4,1,1,3,7018,9/15/17 14:29,,,,,,
362,4,2,4,8,5345,9/15/17 14:29,,,,,,
362,4,3,9,6,4766,9/15/17 14:29,,,,,,
362,4,4,3,2,12028,9/15/17 14:29,,,,,,
363,5,0,4,9,37341,9/15/17 17:03,,,,,,
363,7,1,5,10,87197,9/15/17 17:05,,,,,,
363,3,2,6,6,15830,9/15/17 17:05,,,,,,
363,5,3,9,8,17609,9/15/17 17:05,,,,,,
363,1,4,10,2,8700,9/15/17 17:06,,,,,,
364,3,0,6,4,42049,9/15/17 13:51,,,,,,
364,2,1,7,1,10915,9/15/17 13:52,,,,,,
364,0,2,10,7,10645,9/15/17 13:52,,,,,,
364,2,3,4,9,8282,9/15/17 13:52,,,,,,
364,2,4,8,8,5052,9/15/17 13:52,,,,,,
365,2,0,7,8,23472,9/15/17 13:57,,,,,,
365,1,1,5,4,9961,9/15/17 13:57,,,,,,
365,3,2,1,6,6908,9/15/17 13:58,,,,,,
365,2,3,3,3,5823,9/15/17 13:58,,,,,,
365,0,4,9,1,4753,9/15/17 13:58,,,,,,
366,8,0,8,10,71751,9/15/17 16:49,,,,,,
366,8,1,1,5,33521,9/15/17 16:50,,,,,,
366,4,2,10,4,23612,9/15/17 16:50,,,,,,
366,6,3,4,2,34002,9/15/17 16:51,,,,,,
366,7,4,3,6,49748,9/15/17 16:52,,,,,,
367,8,0,1,8,42969,9/15/17 15:26,,,,,,
367,1,1,9,3,10979,9/15/17 15:27,,,,,,
367,4,2,2,2,11820,9/15/17 15:27,,,,,,
367,4,3,8,7,8635,9/15/17 15:27,,,,,,
367,0,4,10,5,8934,9/15/17 15:27,,,,,,
368,0,0,2,3,36802,9/15/17 16:47,,,,,,
368,1,1,6,6,14527,9/15/17 16:47,,,,,,
368,8,2,4,10,10711,9/15/17 16:48,,,,,,
368,3,3,1,5,8618,9/15/17 16:48,,,,,,
368,4,4,8,9,11422,9/15/17 16:48,,,,,,
369,7,0,9,10,42300,9/15/17 16:10,,,,,,
369,6,1,2,6,30250,9/15/17 16:11,,,,,,
369,7,2,8,4,21765,9/15/17 16:11,,,,,,
369,7,3,1,3,9320,9/15/17 16:11,,,,,,
369,6,4,3,5,10283,9/15/17 16:12,,,,,,
370,3,0,5,3,36776,9/15/17 15:08,,,,,,
370,2,1,9,8,19676,9/15/17 15:09,,,,,,
370,3,2,7,5,13216,9/15/17 15:09,,,,,,
370,2,3,2,4,8483,9/15/17 15:09,,,,,,
370,3,4,4,9,5110,9/15/17 15:09,,,,,,
371,5,0,1,7,37569,9/15/17 14:49,,,,,,
371,8,1,8,10,18924,9/15/17 14:50,,,,,,
371,6,2,3,5,13661,9/15/17 14:50,,,,,,
371,5,3,9,3,13458,9/15/17 14:50,,,,,,
371,6,4,2,9,11784,9/15/17 14:50,,,,,,
372,0,0,5,5,50869,9/15/17 16:27,,,,,,
372,0,1,2,7,13224,9/15/17 16:27,,,,,,
372,0,2,7,2,8179,9/15/17 16:27,,,,,,
372,0,3,4,10,8775,9/15/17 16:27,,,,,,
372,0,4,8,1,6369,9/15/17 16:27,,,,,,
373,4,0,5,6,18528,9/15/17 14:29,,,,,,
373,4,1,7,8,9770,9/15/17 14:29,,,,,,
373,4,2,1,7,6174,9/15/17 14:29,,,,,,
373,4,3,4,4,4546,9/15/17 14:29,,,,,,
373,4,4,6,5,4020,9/15/17 14:29,,,,,,
374,2,0,9,7,89811,9/15/17 17:30,,,,,,
374,3,1,3,6,29106,9/15/17 17:31,,,,,,
374,8,2,1,10,26599,9/15/17 17:31,,,,,,
374,1,3,4,1,16235,9/15/17 17:31,,,,,,
374,4,4,5,9,17490,9/15/17 17:32,,,,,,
375,2,0,7,7,55512,9/15/17 17:32,,,,,,
375,1,1,10,4,21144,9/15/17 17:33,,,,,,
375,4,2,2,3,20356,9/15/17 17:33,,,,,,
375,0,3,9,9,13213,9/15/17 17:33,,,,,,
375,8,4,6,10,12397,9/15/17 17:34,,,,,,
376,8,0,6,8,26135,9/15/17 14:16,,,,,,
376,6,1,3,1,21338,9/15/17 14:16,,,,,,
376,6,2,7,6,39240,9/15/17 14:17,,,,,,
376,7,3,1,10,26512,9/15/17 14:17,,,,,,
376,7,4,8,5,6664,9/15/17 14:17,,,,,,
377,5,0,6,8,37968,9/15/17 16:42,,,,,,
377,6,1,4,4,17392,9/15/17 16:42,,,,,,
377,6,2,8,1,10030,9/15/17 16:42,,,,,,
377,5,3,7,5,8119,9/15/17 16:42,,,,,,
377,6,4,9,10,6423,9/15/17 16:43,,,,,,
378,0,0,1,1,86771,9/15/17 16:43,,,,,,
378,6,1,2,7,91213,9/15/17 16:45,,,,,,
378,7,2,4,9,28287,9/15/17 16:45,,,,,,
378,0,3,6,3,30545,9/15/17 16:46,,,,,,
378,0,4,5,4,26161,9/15/17 16:46,,,,,,
379,4,0,2,1,30379,9/15/17 17:24,,,,,,
379,5,1,3,9,12570,9/15/17 17:25,,,,,,
379,6,2,1,10,7972,9/15/17 17:25,,,,,,
379,5,3,5,7,12187,9/15/17 17:25,,,,,,
379,3,4,7,4,9186,9/15/17 17:25,,,,,,
380,7,0,5,9,29091,9/15/17 15:43,,,,,,
380,3,1,8,3,6293,9/15/17 15:44,,,,,,
380,0,2,9,5,2936,9/15/17 15:44,,,,,,
380,1,3,2,10,2779,9/15/17 15:44,,,,,,
380,4,4,6,4,2132,9/15/17 15:44,,,,,,
381,7,0,2,7,24376,9/15/17 17:03,,,,,,
381,8,1,6,10,10230,9/15/17 17:03,,,,,,
381,7,2,5,9,11324,9/15/17 17:03,,,,,,
381,0,3,10,5,6660,9/15/17 17:03,,,,,,
381,1,4,9,4,6989,9/15/17 17:03,,,,,,
382,0,0,7,7,99278,9/15/17 15:52,,,,,,
382,0,1,9,4,32586,9/15/17 15:53,,,,,,
382,0,2,6,3,15215,9/15/17 15:53,,,,,,
382,0,3,8,1,15065,9/15/17 15:53,,,,,,
382,0,4,1,8,8553,9/15/17 15:54,,,,,,
383,7,0,4,10,25460,9/15/17 15:51,,,,,,
383,5,1,9,2,12500,9/15/17 15:51,,,,,,
383,3,2,6,5,10309,9/15/17 15:51,,,,,,
383,5,3,2,6,12389,9/15/17 15:52,,,,,,
383,6,4,3,8,4271,9/15/17 15:52,,,,,,
384,8,0,10,2,63699,9/15/17 14:55,,,,,,
384,8,1,5,8,49308,9/15/17 14:56,,,,,,
384,2,2,8,1,15095,9/15/17 14:56,,,,,,
384,2,3,9,4,7274,9/15/17 14:56,,,,,,
384,1,4,4,3,10821,9/15/17 14:56,,,,,,
385,5,0,4,4,35370,9/15/17 15:05,,,,,,
385,0,1,10,9,18709,9/15/17 15:06,,,,,,
385,5,2,7,3,11593,9/15/17 15:06,,,,,,
385,8,3,1,5,4576,9/15/17 15:06,,,,,,
385,7,4,5,8,4418,9/15/17 15:06,,,,,,
386,4,0,1,7,29630,9/15/17 15:27,,,,,,
386,4,1,4,8,18083,9/15/17 15:27,,,,,,
386,4,2,7,9,14478,9/15/17 15:27,,,,,,
386,4,3,3,1,12935,9/15/17 15:27,,,,,,
386,4,4,8,2,8480,9/15/17 15:28,,,,,,
387,0,0,10,9,41738,9/15/17 17:20,,,,,,
387,0,1,2,10,17195,9/15/17 17:20,,,,,,
387,0,2,4,3,32811,9/15/17 17:21,,,,,,
387,0,3,1,6,13636,9/15/17 17:21,,,,,,
387,0,4,3,1,10628,9/15/17 17:21,,,,,,
388,7,0,6,2,54798,9/15/17 15:59,,,,,,
388,6,1,4,3,17180,9/15/17 15:59,,,,,,
388,4,2,7,10,15829,9/15/17 15:59,,,,,,
388,4,3,1,7,6771,9/15/17 15:59,,,,,,
388,4,4,5,9,3340,9/15/17 16:00,,,,,,
389,8,0,1,3,26233,9/15/17 15:14,,,,,,
389,8,1,9,6,25201,9/15/17 15:14,,,,,,
389,8,2,8,5,14624,9/15/17 15:14,,,,,,
389,8,3,7,4,7664,9/15/17 15:15,,,,,,
389,8,4,10,2,7032,9/15/17 15:15,,,,,,
390,3,0,9,5,6460,9/15/17 16:15,,,,,,
390,2,1,8,6,2972,9/15/17 16:15,,,,,,
390,4,2,4,7,2321,9/15/17 16:15,,,,,,
390,5,3,3,8,2473,9/15/17 16:15,,,,,,
390,3,4,10,9,1497,9/15/17 16:15,,,,,,
391,0,0,10,6,48839,9/15/17 15:30,,,,,,
391,3,1,7,1,29037,9/15/17 15:31,,,,,,
391,2,2,9,8,26735,9/15/17 15:31,,,,,,
391,3,3,8,5,16799,9/15/17 15:32,,,,,,
391,3,4,6,4,12529,9/15/17 15:32,,,,,,
392,3,0,7,4,75908,9/15/17 15:28,,,,,,
392,5,1,1,6,31857,9/15/17 15:29,,,,,,
392,4,2,3,5,29815,9/15/17 15:29,,,,,,
392,5,3,2,7,14077,9/15/17 15:30,,,,,,
392,8,4,9,10,23114,9/15/17 15:30,,,,,,
393,4,0,2,6,35956,9/15/17 16:29,,,,,,
393,4,1,7,4,21430,9/15/17 16:30,,,,,,
393,6,2,4,10,22594,9/15/17 16:30,,,,,,
393,4,3,5,5,5337,9/15/17 16:30,,,,,,
393,4,4,1,1,9122,9/15/17 16:30,,,,,,
394,7,0,6,10,27067,9/15/17 14:42,,,,,,
394,4,1,8,6,15913,9/15/17 14:42,,,,,,
394,4,2,5,2,9508,9/15/17 14:42,,,,,,
394,4,3,7,7,7125,9/15/17 14:43,,,,,,
394,4,4,4,3,7708,9/15/17 14:43,,,,,,
395,4,0,6,8,26642,9/15/17 17:03,,,,,,
395,4,1,7,5,14352,9/15/17 17:04,,,,,,
395,6,2,3,3,8690,9/15/17 17:04,,,,,,
395,6,3,2,4,9379,9/15/17 17:04,,,,,,
395,3,4,9,6,7292,9/15/17 17:04,,,,,,
396,2,0,5,4,39959,9/15/17 17:18,,,,,,
396,5,1,1,9,19909,9/15/17 17:18,,,,,,
396,2,2,4,2,12917,9/15/17 17:18,,,,,,
396,5,3,9,7,16907,9/15/17 17:19,,,,,,
396,5,4,8,1,12786,9/15/17 17:19,,,,,,
397,8,0,3,10,40741,9/15/17 16:43,,,,,,
397,6,1,6,3,21453,9/15/17 16:43,,,,,,
397,7,2,2,1,14525,9/15/17 16:43,,,,,,
397,7,3,4,2,41979,9/15/17 16:44,,,,,,
397,8,4,10,7,9262,9/15/17 16:44,,,,,,
398,0,0,8,8,28678,9/15/17 17:24,,,,,,
398,0,1,10,9,10769,9/15/17 17:24,,,,,,
398,0,2,6,2,9427,9/15/17 17:24,,,,,,
398,0,3,1,6,4740,9/15/17 17:24,,,,,,
398,0,4,3,4,5208,9/15/17 17:24,,,,,,
399,8,0,10,6,37989,9/15/17 14:14,,,,,,
399,8,1,5,7,14679,9/15/17 14:14,,,,,,
399,7,2,6,5,12029,9/15/17 14:14,,,,,,
399,1,3,7,1,9766,9/15/17 14:15,,,,,,
399,6,4,3,8,12561,9/15/17 14:15,,,,,,
400,4,0,2,7,23558,9/15/17 13:54,,,,,,
400,5,1,3,9,17276,9/15/17 13:54,,,,,,
400,3,2,9,5,6189,9/15/17 13:54,,,,,,
400,8,3,8,10,7252,9/15/17 13:54,,,,,,
400,0,4,7,1,7907,9/15/17 13:54,,,,,,
401,7,0,5,2,26448,9/15/17 15:52,,,,,,
401,3,1,10,8,8600,9/15/17 15:53,,,,,,
401,7,2,9,3,10538,9/15/17 15:53,,,,,,
401,7,3,6,7,13529,9/15/17 15:53,,,,,,
401,7,4,8,9,7364,9/15/17 15:53,,,,,,
402,8,0,8,5,36459,9/15/17 14:42,,,,,,
402,8,1,4,4,11218,9/15/17 14:42,,,,,,
402,8,2,6,9,9492,9/15/17 14:42,,,,,,
402,8,3,1,10,8093,9/15/17 14:42,,,,,,
402,8,4,2,8,6796,9/15/17 14:42,,,,,,
403,2,0,5,3,37741,9/15/17 15:14,,,,,,
403,8,1,3,10,14043,9/15/17 15:14,,,,,,
403,1,2,8,7,14378,9/15/17 15:14,,,,,,
403,1,3,2,6,51096,9/15/17 15:15,,,,,,
403,2,4,6,5,11981,9/15/17 15:15,,,,,,
404,6,0,4,8,38939,9/15/17 17:09,,,,,,
404,0,1,10,9,35943,9/15/17 17:09,,,,,,
404,8,2,1,4,14244,9/15/17 17:09,,,,,,
404,1,3,6,1,18190,9/15/17 17:10,,,,,,
404,7,4,3,5,14347,9/15/17 17:10,,,,,,
405,2,0,3,7,39427,9/15/17 13:55,,,,,,
405,2,1,5,3,19808,9/15/17 13:56,,,,,,
405,6,2,1,5,8779,9/15/17 13:56,,,,,,
405,3,3,4,6,19745,9/15/17 13:56,,,,,,
405,0,4,10,1,5835,9/15/17 13:56,,,,,,
406,0,0,10,7,46233,9/15/17 15:21,,,,,,
406,2,1,5,5,16201,9/15/17 15:21,,,,,,
406,6,2,7,9,7806,9/15/17 15:22,,,,,,
406,4,3,3,8,10464,9/15/17 15:22,,,,,,
406,6,4,2,6,5851,9/15/17 15:22,,,,,,
407,3,0,5,6,8443,9/15/17 14:47,,,,,,
407,8,1,10,7,3754,9/15/17 14:47,,,,,,
407,3,2,3,4,2475,9/15/17 14:47,,,,,,
407,-1,3,8,1,5211,9/15/17 14:47,,,,,,
407,4,4,7,9,46869,9/15/17 14:48,,,,,,
408,3,0,9,9,33243,9/15/17 16:59,,,,,,
408,1,1,10,3,25060,9/15/17 16:59,,,,,,
408,3,2,7,2,16495,9/15/17 16:59,,,,,,
408,7,3,1,8,10066,9/15/17 17:00,,,,,,
408,6,4,4,4,9555,9/15/17 17:00,,,,,,
409,6,0,7,7,35900,9/15/17 14:57,,,,,,
409,1,1,10,1,22713,9/15/17 14:57,,,,,,
409,6,2,8,9,13219,9/15/17 14:57,,,,,,
409,2,3,5,4,12208,9/15/17 14:58,,,,,,
409,4,4,6,6,10949,9/15/17 14:58,,,,,,
410,0,0,1,1,26282,9/15/17 14:55,,,,,,
410,0,1,3,4,14804,9/15/17 14:55,,,,,,
410,0,2,5,3,7357,9/15/17 14:55,,,,,,
410,0,3,2,2,6121,9/15/17 14:55,,,,,,
410,8,4,4,10,8985,9/15/17 14:56,,,,,,
411,7,0,3,10,30441,9/15/17 15:57,,,,,,
411,3,1,10,7,13396,9/15/17 15:58,,,,,,
411,4,2,1,2,13342,9/15/17 15:58,,,,,,
411,3,3,7,1,13718,9/15/17 15:58,,,,,,
411,3,4,6,4,11769,9/15/17 15:58,,,,,,
412,8,0,3,2,22634,9/15/17 14:15,,,,,,
412,7,1,10,6,12631,9/15/17 14:16,,,,,,
412,7,2,9,10,11316,9/15/17 14:16,,,,,,
412,7,3,1,5,6432,9/15/17 14:16,,,,,,
412,7,4,2,8,7840,9/15/17 14:16,,,,,,
413,0,0,4,10,31309,9/15/17 15:22,,,,,,
413,0,1,2,3,27731,9/15/17 15:23,,,,,,
413,0,2,8,8,13971,9/15/17 15:23,,,,,,
413,0,3,6,4,7889,9/15/17 15:23,,,,,,
413,0,4,5,9,8823,9/15/17 15:23,,,,,,
414,5,0,8,5,28669,9/15/17 15:47,,,,,,
414,7,1,7,9,25585,9/15/17 15:48,,,,,,
414,5,2,2,2,19092,9/15/17 15:48,,,,,,
414,8,3,1,3,7413,9/15/17 15:48,,,,,,
414,5,4,6,6,3596,9/15/17 15:48,,,,,,
415,4,0,7,5,31648,9/15/17 14:40,,,,,,
415,2,1,8,2,24210,9/15/17 14:41,,,,,,
415,5,2,4,6,18858,9/15/17 14:41,,,,,,
415,1,3,10,7,9484,9/15/17 14:41,,,,,,
415,4,4,6,3,14873,9/15/17 14:41,,,,,,
416,6,0,8,10,34120,9/15/17 16:57,,,,,,
416,5,1,4,3,20512,9/15/17 16:58,,,,,,
416,6,2,1,8,16871,9/15/17 16:58,,,,,,
416,6,3,3,2,13163,9/15/17 16:58,,,,,,
416,5,4,6,9,11899,9/15/17 16:59,,,,,,
417,5,0,5,8,14969,9/15/17 13:39,,,,,,
417,5,1,3,6,8312,9/15/17 13:39,,,,,,
417,4,2,7,7,4804,9/15/17 13:39,,,,,,
417,1,3,10,9,4490,9/15/17 13:39,,,,,,
417,2,4,6,5,5274,9/15/17 13:39,,,,,,
418,1,0,10,9,52517,9/15/17 13:49,,,,,,
418,1,1,2,3,23900,9/15/17 13:49,,,,,,
418,1,2,5,8,12750,9/15/17 13:50,,,,,,
418,1,3,3,1,12973,9/15/17 13:50,,,,,,
418,1,4,6,2,12576,9/15/17 13:50,,,,,,
419,7,0,9,10,136715,9/15/17 14:12,,,,,,
419,4,1,3,8,45294,9/15/17 14:13,,,,,,
419,3,2,2,9,18072,9/15/17 14:13,,,,,,
419,0,3,4,1,5633,9/15/17 14:13,,,,,,
419,7,4,1,5,30569,9/15/17 14:14,,,,,,
420,1,0,7,2,30782,9/15/17 15:55,,,,,,
420,7,1,3,8,19865,9/15/17 15:55,,,,,,
420,0,2,10,1,8816,9/15/17 15:55,,,,,,
420,4,3,4,4,8607,9/15/17 15:55,,,,,,
420,3,4,5,6,12423,9/15/17 15:56,,,,,,
421,2,0,4,3,30717,9/15/17 15:03,,,,,,
421,1,1,7,2,14899,9/15/17 15:03,,,,,,
421,4,2,5,5,8969,9/15/17 15:03,,,,,,
421,6,3,3,10,11522,9/15/17 15:03,,,,,,
421,2,4,6,1,8621,9/15/17 15:04,,,,,,
422,4,0,5,10,88620,9/15/17 16:48,,,,,,
422,4,1,6,6,24294,9/15/17 16:49,,,,,,
422,4,2,10,8,14652,9/15/17 16:49,,,,,,
422,4,3,2,9,14187,9/15/17 16:49,,,,,,
422,4,4,1,4,12078,9/15/17 16:49,,,,,,
423,2,0,9,4,26978,9/15/17 15:46,,,,,,
423,1,1,4,1,19594,9/15/17 15:46,,,,,,
423,0,2,10,5,8245,9/15/17 15:47,,,,,,
423,4,3,3,2,8933,9/15/17 15:47,,,,,,
423,1,4,2,3,9219,9/15/17 15:47,,,,,,
424,4,0,5,2,59309,9/15/17 16:41,,,,,,
424,5,1,7,4,24004,9/15/17 16:42,,,,,,
424,4,2,4,7,13994,9/15/17 16:42,,,,,,
424,7,3,9,9,11393,9/15/17 16:42,,,,,,
424,3,4,3,5,8419,9/15/17 16:42,,,,,,
425,4,0,2,1,45554,9/15/17 16:23,,,,,,
425,3,1,8,2,18482,9/15/17 16:24,,,,,,
425,4,2,9,10,14271,9/15/17 16:24,,,,,,
425,3,3,10,6,10615,9/15/17 16:24,,,,,,
425,3,4,3,5,8704,9/15/17 16:24,,,,,,
426,5,0,3,4,24503,9/15/17 17:33,,,,,,
426,6,1,2,9,12373,9/15/17 17:33,,,,,,
426,5,2,8,8,8132,9/15/17 17:34,,,,,,
426,4,3,5,3,6553,9/15/17 17:34,,,,,,
426,8,4,7,10,8841,9/15/17 17:34,,,,,,
427,6,0,4,8,34315,9/15/17 14:49,,,,,,
427,8,1,8,10,15227,9/15/17 14:49,,,,,,
427,2,2,5,4,11466,9/15/17 14:49,,,,,,
427,7,3,1,7,16309,9/15/17 14:49,,,,,,
427,0,4,10,6,10817,9/15/17 14:49,,,,,,
428,1,0,5,1,24979,9/15/17 15:27,,,,,,
428,1,1,3,3,13726,9/15/17 15:27,,,,,,
428,1,2,2,7,7701,9/15/17 15:27,,,,,,
428,1,3,1,8,6089,9/15/17 15:27,,,,,,
428,1,4,8,5,6043,9/15/17 15:28,,,,,,
429,8,0,5,10,19226,9/15/17 16:31,,,,,,
429,7,1,4,7,7634,9/15/17 16:31,,,,,,
429,8,2,1,4,8638,9/15/17 16:32,,,,,,
429,7,3,10,5,20646,9/15/17 16:32,,,,,,
429,7,4,7,3,35092,9/15/17 16:33,,,,,,
430,6,0,4,7,16399,9/15/17 15:47,,,,,,
430,8,1,7,10,10981,9/15/17 15:47,,,,,,
430,7,2,9,6,4231,9/15/17 15:47,,,,,,
430,6,3,2,9,5037,9/15/17 15:48,,,,,,
430,0,4,10,2,3548,9/15/17 15:48,,,,,,
431,6,0,6,4,18645,9/15/17 14:09,,,,,,
431,6,1,4,2,4994,9/15/17 14:09,,,,,,
431,2,2,7,7,9532,9/15/17 14:09,,,,,,
431,1,3,8,10,3648,9/15/17 14:09,,,,,,
431,2,4,1,6,1370,9/15/17 14:09,,,,,,
432,7,0,8,1,66253,9/15/17 15:21,,,,,,
432,7,1,9,8,31114,9/15/17 15:22,,,,,,
432,8,2,6,2,36888,9/15/17 15:23,,,,,,
432,0,3,1,4,47030,9/15/17 15:23,,,,,,
432,0,4,2,6,24774,9/15/17 15:24,,,,,,
433,0,0,8,6,62433,9/15/17 15:50,,,,,,
433,0,1,2,7,16447,9/15/17 15:51,,,,,,
433,0,2,5,1,10052,9/15/17 15:51,,,,,,
433,0,3,6,2,16544,9/15/17 15:51,,,,,,
433,0,4,3,8,14814,9/15/17 15:51,,,,,,
434,6,0,9,9,66369,9/15/17 16:38,,,,,,
434,0,1,10,2,22359,9/15/17 16:38,,,,,,
434,6,2,7,4,17980,9/15/17 16:39,,,,,,
434,6,3,8,6,39714,9/15/17 16:39,,,,,,
434,7,4,2,3,8152,9/15/17 16:40,,,,,,
435,5,0,6,3,21744,9/15/17 14:50,,,,,,
435,3,1,3,8,2524,9/15/17 14:50,,,,,,
435,5,2,1,1,2430,9/15/17 14:50,,,,,,
435,6,3,8,2,3215,9/15/17 14:51,,,,,,
435,6,4,10,4,9160,9/15/17 14:51,,,,,,
436,6,0,1,3,30038,9/15/17 16:30,,,,,,
436,6,1,6,2,17221,9/15/17 16:31,,,,,,
436,6,2,4,10,8561,9/15/17 16:31,,,,,,
436,6,3,8,4,5352,9/15/17 16:31,,,,,,
436,6,4,7,5,6283,9/15/17 16:31,,,,,,
437,3,0,3,3,27840,9/15/17 14:00,,,,,,
437,8,1,8,9,13058,9/15/17 14:00,,,,,,
437,5,2,5,1,8633,9/15/17 14:00,,,,,,
437,2,3,2,10,12313,9/15/17 14:01,,,,,,
437,5,4,6,6,8565,9/15/17 14:01,,,,,,
438,1,0,3,9,116921,9/15/17 15:40,,,,,,
438,1,1,4,2,58406,9/15/17 15:41,,,,,,
438,0,2,9,1,15571,9/15/17 15:41,,,,,,
438,1,3,7,4,25098,9/15/17 15:42,,,,,,
438,2,4,8,6,20436,9/15/17 15:42,,,,,,
439,6,0,7,4,46216,9/15/17 13:47,,,,,,
439,8,1,9,5,8982,9/15/17 13:47,,,,,,
439,7,2,6,2,8938,9/15/17 13:47,,,,,,
439,1,3,1,10,3784,9/15/17 13:47,,,,,,
439,8,4,10,8,10002,9/15/17 13:47,,,,,,
440,4,0,6,8,56381,9/15/17 16:40,,,,,,
440,4,1,9,1,15452,9/15/17 16:40,,,,,,
440,4,2,7,6,15775,9/15/17 16:40,,,,,,
440,6,3,2,10,42392,9/15/17 16:41,,,,,,
440,4,4,4,2,10313,9/15/17 16:41,,,,,,
441,2,0,8,5,66403,9/15/17 17:30,,,,,,
441,4,1,2,8,26748,9/15/17 17:30,,,,,,
441,1,2,7,2,13253,9/15/17 17:31,,,,,,
441,8,3,9,10,27466,9/15/17 17:31,,,,,,
441,2,4,5,3,17547,9/15/17 17:31,,,,,,
442,7,0,2,8,16671,9/15/17 15:17,,,,,,
442,2,1,7,2,14634,9/15/17 15:17,,,,,,
442,2,2,4,7,8025,9/15/17 15:18,,,,,,
442,8,3,1,6,6178,9/15/17 15:18,,,,,,
442,4,4,5,9,11380,9/15/17 15:18,,,,,,
443,3,0,4,2,23287,9/15/17 16:21,,,,,,
443,0,1,10,4,7825,9/15/17 16:21,,,,,,
443,6,2,1,5,6809,9/15/17 16:21,,,,,,
443,3,3,7,7,4421,9/15/17 16:21,,,,,,
443,6,4,3,9,4471,9/15/17 16:21,,,,,,
444,6,0,3,5,37212,9/15/17 14:48,,,,,,
444,7,1,6,6,21226,9/15/17 14:48,,,,,,
444,7,2,5,10,7723,9/15/17 14:48,,,,,,
444,7,3,9,8,8907,9/15/17 14:48,,,,,,
444,7,4,4,7,8482,9/15/17 14:48,,,,,,
445,1,0,3,7,26882,9/15/17 13:34,,,,,,
445,1,1,4,5,8815,9/15/17 13:34,,,,,,
445,6,2,6,2,4596,9/15/17 13:34,,,,,,
445,1,3,1,9,6870,9/15/17 13:34,,,,,,
445,7,4,8,10,6637,9/15/17 13:34,,,,,,
446,0,0,10,1,32024,9/15/17 16:28,,,,,,
446,5,1,9,6,24196,9/15/17 16:28,,,,,,
446,4,2,4,3,11651,9/15/17 16:29,,,,,,
446,6,3,1,5,11304,9/15/17 16:29,,,,,,
446,5,4,2,4,8758,9/15/17 16:29,,,,,,
447,3,0,6,1,41273,9/15/17 16:21,,,,,,
447,2,1,9,8,10621,9/15/17 16:21,,,,,,
447,3,2,7,3,7185,9/15/17 16:21,,,,,,
447,5,3,1,6,8427,9/15/17 16:22,,,,,,
447,5,4,2,2,5142,9/15/17 16:22,,,,,,
448,6,0,1,2,24910,9/15/17 16:49,,,,,,
448,6,1,5,8,13433,9/15/17 16:49,,,,,,
448,6,2,2,6,9666,9/15/17 16:49,,,,,,
448,6,3,6,9,7000,9/15/17 16:49,,,,,,
448,6,4,4,1,6300,9/15/17 16:49,,,,,,
449,4,0,7,7,9283,9/15/17 15:42,,,,,,
449,1,1,1,9,13827,9/15/17 15:43,,,,,,
449,6,2,2,1,7106,9/15/17 15:43,,,,,,
449,8,3,9,8,5143,9/15/17 15:43,,,,,,
449,7,4,8,6,7374,9/15/17 15:43,,,,,,
450,4,0,4,4,19272,9/15/17 13:37,,,,,,
450,3,1,7,6,8596,9/15/17 13:37,,,,,,
450,4,2,3,3,9560,9/15/17 13:37,,,,,,
450,4,3,2,5,5092,9/15/17 13:38,,,,,,
450,3,4,8,2,2958,9/15/17 13:38,,,,,,
451,6,0,1,7,50964,9/15/17 14:08,,,,,,
451,7,1,7,2,21375,9/15/17 14:09,,,,,,
451,7,2,4,5,14809,9/15/17 14:09,,,,,,
451,3,3,3,1,15035,9/15/17 14:09,,,,,,
451,7,4,6,8,10273,9/15/17 14:09,,,,,,
452,0,0,10,8,22765,9/15/17 16:10,,,,,,
452,4,1,9,7,11503,9/15/17 16:10,,,,,,
452,6,2,5,2,8059,9/15/17 16:10,,,,,,
452,7,3,2,6,9619,9/15/17 16:11,,,,,,
452,5,4,7,9,12923,9/15/17 16:11,,,,,,
453,8,0,9,10,36881,9/15/17 14:11,,,,,,
453,4,1,8,7,19716,9/15/17 14:12,,,,,,
453,5,2,3,6,36894,9/15/17 14:12,,,,,,
453,4,3,5,4,23140,9/15/17 14:13,,,,,,
453,4,4,1,2,24327,9/15/17 14:13,,,,,,
454,1,0,8,5,19002,9/15/17 16:04,,,,,,
454,6,1,2,7,4723,9/15/17 16:04,,,,,,
454,1,2,1,8,4387,9/15/17 16:04,,,,,,
454,3,3,7,2,210256,9/15/17 16:08,,,,,,
454,5,4,3,9,2397,9/15/17 16:08,,,,,,
455,4,0,4,5,43410,9/15/17 13:49,,,,,,
455,4,1,8,9,15549,9/15/17 13:50,,,,,,
455,4,2,7,2,9365,9/15/17 13:50,,,,,,
455,4,3,1,3,10918,9/15/17 13:50,,,,,,
455,4,4,3,10,7433,9/15/17 13:50,,,,,,
456,1,0,4,6,37316,9/15/17 16:14,,,,,,
456,1,1,6,8,14498,9/15/17 16:14,,,,,,
456,1,2,8,7,5540,9/15/17 16:14,,,,,,
456,1,3,7,9,4572,9/15/17 16:14,,,,,,
456,1,4,5,4,6345,9/15/17 16:14,,,,,,
457,0,0,9,4,47236,9/15/17 15:00,,,,,,
457,0,1,3,9,21713,9/15/17 15:01,,,,,,
457,0,2,1,3,13084,9/15/17 15:01,,,,,,
457,8,3,5,10,16399,9/15/17 15:01,,,,,,
457,0,4,6,1,11693,9/15/17 15:01,,,,,,
458,8,0,4,2,40415,9/15/17 14:20,,,,,,
458,4,1,2,1,14657,9/15/17 14:20,,,,,,
458,4,2,3,5,19373,9/15/17 14:21,,,,,,
458,8,3,8,7,9382,9/15/17 14:21,,,,,,
458,0,4,5,6,17471,9/15/17 14:21,,,,,,
459,4,0,8,6,67010,9/15/17 17:10,,,,,,
459,4,1,5,1,5147,9/15/17 17:10,,,,,,
459,4,2,6,4,3661,9/15/17 17:10,,,,,,
459,4,3,3,7,1813,9/15/17 17:10,,,,,,
459,4,4,7,3,1546,9/15/17 17:10,,,,,,
460,0,0,8,1,25987,9/15/17 16:09,,,,,,
460,7,1,4,3,21081,9/15/17 16:09,,,,,,
460,7,2,2,7,12234,9/15/17 16:09,,,,,,
460,4,3,10,5,9926,9/15/17 16:09,,,,,,
460,3,4,5,6,4429,9/15/17 16:09,,,,,,
461,4,0,4,2,24693,9/15/17 15:05,,,,,,
461,5,1,5,8,13598,9/15/17 15:05,,,,,,
461,4,2,3,3,8828,9/15/17 15:06,,,,,,
461,6,3,1,5,7054,9/15/17 15:06,,,,,,
461,5,4,6,4,11568,9/15/17 15:06,,,,,,
462,4,0,2,7,68131,9/15/17 16:27,,,,,,
462,4,1,6,2,46714,9/15/17 16:27,,,,,,
462,4,2,5,4,10485,9/15/17 16:28,,,,,,
462,4,3,3,5,9571,9/15/17 16:28,,,,,,
462,4,4,9,6,14021,9/15/17 16:28,,,,,,
463,8,0,8,9,25252,9/15/17 17:06,,,,,,
463,6,1,4,8,18320,9/15/17 17:06,,,,,,
463,2,2,9,5,13383,9/15/17 17:06,,,,,,
463,1,3,5,2,14611,9/15/17 17:06,,,,,,
463,0,4,10,7,7966,9/15/17 17:07,,,,,,
464,2,0,5,1,33026,9/15/17 15:54,,,,,,
464,8,1,3,10,13036,9/15/17 15:54,,,,,,
464,0,2,10,9,8796,9/15/17 15:54,,,,,,
464,2,3,8,4,12725,9/15/17 15:54,,,,,,
464,4,4,2,7,7504,9/15/17 15:54,,,,,,
465,8,0,1,10,33886,9/15/17 15:46,,,,,,
465,6,1,2,9,11735,9/15/17 15:46,,,,,,
465,4,2,9,7,6088,9/15/17 15:47,,,,,,
465,0,3,3,3,13457,9/15/17 15:47,,,,,,
465,-1,4,8,8,5185,9/15/17 15:47,,,,,,
466,0,0,10,8,26734,9/15/17 14:02,,,,,,
466,1,1,8,2,14358,9/15/17 14:02,,,,,,
466,7,2,4,10,9597,9/15/17 14:02,,,,,,
466,2,3,9,6,9419,9/15/17 14:02,,,,,,
466,4,4,5,5,9269,9/15/17 14:02,,,,,,
467,4,0,5,6,16732,9/15/17 17:32,,,,,,
467,2,1,4,5,10597,9/15/17 17:32,,,,,,
467,3,2,7,3,7285,9/15/17 17:32,,,,,,
467,8,3,10,8,5124,9/15/17 17:32,,,,,,
467,2,4,9,1,7501,9/15/17 17:32,,,,,,
468,5,0,5,2,6999,9/15/17 14:46,,,,,,
468,6,1,6,9,1835,9/15/17 14:46,,,,,,
468,5,2,4,6,1857,9/15/17 14:46,,,,,,
468,6,3,1,4,1570,9/15/17 14:46,,,,,,
468,5,4,7,10,2456,9/15/17 14:46,,,,,,
469,7,0,1,7,32208,9/15/17 14:09,,,,,,
469,4,1,7,6,17438,9/15/17 14:10,,,,,,
469,1,2,8,2,7200,9/15/17 14:10,,,,,,
469,5,3,2,5,10656,9/15/17 14:10,,,,,,
469,2,4,5,4,6435,9/15/17 14:10,,,,,,
470,2,0,1,3,25468,9/15/17 15:29,,,,,,
470,3,1,7,6,8825,9/15/17 15:29,,,,,,
470,3,2,3,9,6204,9/15/17 15:29,,,,,,
470,1,3,9,5,4971,9/15/17 15:29,,,,,,
470,1,4,8,2,8059,9/15/17 15:30,,,,,,
471,5,0,5,8,42753,9/15/17 16:41,,,,,,
471,3,1,10,3,11737,9/15/17 16:41,,,,,,
471,4,2,8,6,10737,9/15/17 16:42,,,,,,
471,3,3,9,9,7588,9/15/17 16:42,,,,,,
471,8,4,6,10,26016,9/15/17 16:42,,,,,,
472,1,0,3,3,44210,9/15/17 15:19,,,,,,
472,3,1,1,7,36514,9/15/17 15:19,,,,,,
472,2,2,8,6,16702,9/15/17 15:20,,,,,,
472,2,3,9,2,11143,9/15/17 15:20,,,,,,
472,8,4,2,10,15681,9/15/17 15:20,,,,,,
473,6,0,5,9,28650,9/15/17 14:48,,,,,,
473,0,1,10,2,12324,9/15/17 14:48,,,,,,
473,8,2,6,10,11386,9/15/17 14:48,,,,,,
473,6,3,8,1,8232,9/15/17 14:48,,,,,,
473,4,4,4,7,8413,9/15/17 14:48,,,,,,
474,4,0,7,4,76431,9/15/17 13:53,,,,,,
474,8,1,4,10,14004,9/15/17 13:54,,,,,,
474,6,2,1,8,16871,9/15/17 13:54,,,,,,
474,3,3,6,2,4781,9/15/17 13:54,,,,,,
474,2,4,9,6,7446,9/15/17 13:54,,,,,,
475,3,0,8,6,30221,9/15/17 13:37,,,,,,
475,3,1,7,5,23666,9/15/17 13:38,,,,,,
475,4,2,1,8,41586,9/15/17 13:38,,,,,,
475,4,3,3,3,13346,9/15/17 13:39,,,,,,
475,4,4,5,7,17058,9/15/17 13:39,,,,,,
476,3,0,5,2,29741,9/15/17 14:06,,,,,,
476,5,1,2,3,11355,9/15/17 14:06,,,,,,
476,1,2,10,1,7426,9/15/17 14:06,,,,,,
476,7,3,4,10,12990,9/15/17 14:06,,,,,,
476,4,4,7,7,15358,9/15/17 14:06,,,,,,
477,4,0,2,6,29887,9/15/17 14:14,,,,,,
477,4,1,4,8,15055,9/15/17 14:14,,,,,,
477,4,2,6,9,5634,9/15/17 14:14,,,,,,
477,8,3,5,10,10644,9/15/17 14:14,,,,,,
477,4,4,7,7,4928,9/15/17 14:14,,,,,,
478,4,0,2,2,28837,9/15/17 15:09,,,,,,
478,4,1,5,7,18177,9/15/17 15:10,,,,,,
478,6,2,9,1,9037,9/15/17 15:10,,,,,,
478,5,3,7,8,8129,9/15/17 15:10,,,,,,
478,4,4,1,10,7106,9/15/17 15:10,,,,,,
479,5,0,7,6,23451,9/15/17 14:01,,,,,,
479,4,1,2,2,7307,9/15/17 14:01,,,,,,
479,-1,2,1,1,7389,9/15/17 14:02,,,,,,
479,2,3,3,8,9222,9/15/17 14:02,,,,,,
479,7,4,9,9,8217,9/15/17 14:02,,,,,,
480,1,0,1,9,57374,9/15/17 17:20,,,,,,
480,0,1,2,10,22619,9/15/17 17:21,,,,,,
480,0,2,5,2,14077,9/15/17 17:21,,,,,,
480,0,3,3,5,10986,9/15/17 17:21,,,,,,
480,0,4,6,6,11307,9/15/17 17:21,,,,,,
481,8,0,7,8,56072,9/15/17 14:23,,,,,,
481,8,1,8,9,35248,9/15/17 14:24,,,,,,
481,4,2,5,7,23357,9/15/17 14:24,,,,,,
481,0,3,6,1,19550,9/15/17 14:25,,,,,,
481,2,4,4,5,18592,9/15/17 14:25,,,,,,
482,3,0,6,8,53417,9/15/17 13:35,,,,,,
482,7,1,7,3,30717,9/15/17 13:36,,,,,,
482,8,2,9,2,15409,9/15/17 13:36,,,,,,
482,8,3,8,1,14905,9/15/17 13:36,,,,,,
482,0,4,1,10,10770,9/15/17 13:36,,,,,,
483,0,0,1,3,30978,9/15/17 16:16,,,,,,
483,0,1,3,8,10575,9/15/17 16:16,,,,,,
483,0,2,10,6,17427,9/15/17 16:16,,,,,,
483,0,3,2,7,6040,9/15/17 16:16,,,,,,
483,0,4,7,1,12556,9/15/17 16:17,,,,,,
484,1,0,5,4,33611,9/15/17 13:59,,,,,,
484,1,1,8,2,20630,9/15/17 13:59,,,,,,
484,1,2,4,7,12637,9/15/17 13:59,,,,,,
484,3,3,7,9,17355,9/15/17 14:00,,,,,,
484,1,4,2,8,10798,9/15/17 14:00,,,,,,
485,8,0,3,4,46080,9/15/17 16:57,,,,,,
485,8,1,4,10,24417,9/15/17 16:57,,,,,,
485,1,2,10,6,15141,9/15/17 16:58,,,,,,
485,1,3,8,7,19540,9/15/17 16:58,,,,,,
485,6,4,7,2,17114,9/15/17 16:58,,,,,,
486,7,0,7,1,64990,9/15/17 13:40,,,,,,
486,4,1,3,7,50572,9/15/17 13:41,,,,,,
486,1,2,4,8,25004,9/15/17 13:42,,,,,,
486,1,3,10,4,12657,9/15/17 13:42,,,,,,
486,7,4,8,9,19780,9/15/17 13:42,,,,,,
487,4,0,4,6,36269,9/15/17 13:34,,,,,,
487,4,1,7,7,3957,9/15/17 13:34,,,,,,
487,0,2,10,9,10933,9/15/17 13:35,,,,,,
487,4,3,5,2,5880,9/15/17 13:35,,,,,,
487,2,4,2,10,6962,9/15/17 13:35,,,,,,
488,8,0,7,3,57252,9/15/17 17:40,,,,,,
488,8,1,4,10,15933,9/15/17 17:40,,,,,,
488,8,2,5,6,14311,9/15/17 17:40,,,,,,
488,8,3,3,2,14448,9/15/17 17:40,,,,,,
488,8,4,2,5,19220,9/15/17 17:41,,,,,,
489,2,0,3,6,35545,9/15/17 14:58,,,,,,
489,1,1,6,8,18961,9/15/17 14:58,,,,,,
489,0,2,8,1,9757,9/15/17 14:58,,,,,,
489,1,3,2,2,12352,9/15/17 14:59,,,,,,
489,1,4,7,7,9303,9/15/17 14:59,,,,,,
490,6,0,2,9,37669,9/15/17 13:41,,,,,,
490,6,1,1,2,17237,9/15/17 13:41,,,,,,
490,5,2,6,6,14307,9/15/17 13:41,,,,,,
490,6,3,4,10,15803,9/15/17 13:42,,,,,,
490,4,4,9,8,8854,9/15/17 13:42,,,,,,
491,2,0,6,6,14778,9/15/17 16:17,,,,,,
491,5,1,3,5,5362,9/15/17 16:17,,,,,,
491,6,2,5,9,3606,9/15/17 16:17,,,,,,
491,3,3,1,7,3579,9/15/17 16:17,,,,,,
491,4,4,9,10,6500,9/15/17 16:17,,,,,,
492,0,0,2,7,27808,9/15/17 17:03,,,,,,
492,0,1,10,2,16076,9/15/17 17:03,,,,,,
492,0,2,3,9,7464,9/15/17 17:03,,,,,,
492,8,3,4,10,10295,9/15/17 17:03,,,,,,
492,0,4,8,5,5801,9/15/17 17:04,,,,,,
493,4,0,4,5,4047,9/15/17 16:15,,,,,,
493,2,1,3,1,4321,9/15/17 16:15,,,,,,
493,4,2,7,7,1978,9/15/17 16:15,,,,,,
493,7,3,10,2,1371,9/15/17 16:15,,,,,,
493,2,4,5,10,1103,9/15/17 16:15,,,,,,
494,0,0,10,1,36959,9/15/17 14:10,,,,,,
494,5,1,6,5,25284,9/15/17 14:11,,,,,,
494,2,2,9,7,14989,9/15/17 14:11,,,,,,
494,4,3,3,4,13351,9/15/17 14:11,,,,,,
494,8,4,8,10,10615,9/15/17 14:11,,,,,,
495,3,0,2,1,56976,9/15/17 15:17,,,,,,
495,7,1,1,9,25609,9/15/17 15:17,,,,,,
495,4,2,4,4,49697,9/15/17 15:18,,,,,,
495,1,3,7,2,12589,9/15/17 15:18,,,,,,
495,4,4,5,6,10655,9/15/17 15:18,,,,,,
496,7,0,8,7,86951,9/15/17 13:43,,,,,,
496,1,1,4,8,50267,9/15/17 13:44,,,,,,
496,1,2,2,3,8493,9/15/17 13:44,,,,,,
496,5,3,7,5,236601,9/15/17 13:48,,,,,,
496,0,4,6,1,7744,9/15/17 13:48,,,,,,
497,4,0,6,8,29943,9/15/17 16:16,,,,,,
497,5,1,5,9,13028,9/15/17 16:16,,,,,,
497,4,2,4,4,4673,9/15/17 16:16,,,,,,
497,3,3,10,1,7416,9/15/17 16:16,,,,,,
497,3,4,1,5,4277,9/15/17 16:16,,,,,,
498,8,0,10,6,30461,9/15/17 16:06,,,,,,
498,5,1,7,4,20397,9/15/17 16:07,,,,,,
498,2,2,5,2,8439,9/15/17 16:07,,,,,,
498,4,3,3,9,7206,9/15/17 16:07,,,,,,
498,0,4,1,1,10550,9/15/17 16:07,,,,,,
499,4,0,7,4,34143,9/15/17 14:24,,,,,,
499,6,1,2,6,30174,9/15/17 14:24,,,,,,
499,1,2,9,9,11856,9/15/17 14:25,,,,,,
499,6,3,3,8,16236,9/15/17 14:25,,,,,,
499,4,4,5,7,8860,9/15/17 14:25,,,,,,
500,8,0,9,3,41824,9/15/17 16:07,,,,,,
500,7,1,10,9,19136,9/15/17 16:07,,,,,,
500,7,2,6,4,11996,9/15/17 16:08,,,,,,
500,8,3,1,8,15197,9/15/17 16:08,,,,,,
500,7,4,7,10,15966,9/15/17 16:08,,,,,,
501,8,0,1,7,22096,9/15/17 17:23,,,,,,
501,0,1,9,8,7370,9/15/17 17:23,,,,,,
501,8,2,2,9,13632,9/15/17 17:23,,,,,,
501,0,3,8,3,5002,9/15/17 17:24,,,,,,
501,0,4,6,10,7260,9/15/17 17:24,,,,,,
502,4,0,3,2,50091,9/15/17 16:22,,,,,,
502,4,1,7,7,20024,9/15/17 16:22,,,,,,
502,4,2,4,5,16164,9/15/17 16:22,,,,,,
502,4,3,1,9,12452,9/15/17 16:22,,,,,,
502,4,4,6,8,11901,9/15/17 16:23,,,,,,
503,3,0,9,2,42165,9/15/17 16:19,,,,,,
503,3,1,6,6,12573,9/15/17 16:19,,,,,,
503,3,2,10,9,10714,9/15/17 16:19,,,,,,
503,3,3,5,7,6877,9/15/17 16:19,,,,,,
503,5,4,1,1,9900,9/15/17 16:19,,,,,,
504,6,0,2,3,52323,9/15/17 17:02,,,,,,
504,5,1,3,6,22382,9/15/17 17:03,,,,,,
504,8,2,8,10,11228,9/15/17 17:03,,,,,,
504,8,3,1,9,10333,9/15/17 17:03,,,,,,
504,1,4,4,1,6396,9/15/17 17:03,,,,,,
505,0,0,4,9,41434,9/15/17 15:11,,,,,,
505,3,1,3,7,75849,9/15/17 15:13,,,,,,
505,6,2,9,4,27493,9/15/17 15:13,,,,,,
505,6,3,7,10,11491,9/15/17 15:13,,,,,,
505,2,4,5,1,8583,9/15/17 15:13,,,,,,
506,0,0,10,8,46782,9/15/17 16:57,,,,,,
506,8,1,1,10,13324,9/15/17 16:57,,,,,,
506,6,2,5,6,454550,9/15/17 17:04,,,,,,
506,4,3,3,3,24067,9/15/17 17:05,,,,,,
506,1,4,9,5,38811,9/15/17 17:06,,,,,,
507,6,0,1,5,32507,9/15/17 17:15,,,,,,
507,6,1,2,9,9399,9/15/17 17:15,,,,,,
507,3,2,4,3,6692,9/15/17 17:15,,,,,,
507,7,3,8,6,12309,9/15/17 17:15,,,,,,
507,0,4,10,8,9580,9/15/17 17:15,,,,,,
508,1,0,1,10,25167,9/15/17 14:20,,,,,,
508,3,1,2,3,24127,9/15/17 14:20,,,,,,
508,4,4,5,7,151052,9/15/17 14:34,,,,,,
509,8,0,7,10,61447,9/15/17 15:13,,,,,,
509,6,1,5,7,36650,9/15/17 15:14,,,,,,
509,4,2,1,6,18269,9/15/17 15:14,,,,,,
509,6,3,8,5,8973,9/15/17 15:14,,,,,,
509,2,4,10,1,7184,9/15/17 15:14,,,,,,
510,1,0,10,3,32092,9/15/17 17:26,,,,,,
510,7,1,1,6,14281,9/15/17 17:27,,,,,,
510,3,2,3,2,18576,9/15/17 17:27,,,,,,
510,2,3,6,7,9767,9/15/17 17:27,,,,,,
510,2,4,4,8,6094,9/15/17 17:27,,,,,,
511,2,0,5,4,59241,9/15/17 14:18,,,,,,
511,4,1,6,9,24979,9/15/17 14:19,,,,,,
511,4,2,7,7,14596,9/15/17 14:19,,,,,,
511,3,3,9,5,11292,9/15/17 14:19,,,,,,
511,4,4,3,6,9147,9/15/17 14:19,,,,,,
512,0,0,9,4,34008,9/15/17 14:54,,,,,,
512,4,1,1,1,9544,9/15/17 14:54,,,,,,
512,8,2,6,10,17961,9/15/17 14:54,,,,,,
512,3,3,3,6,11158,9/15/17 14:54,,,,,,
512,3,4,7,2,10590,9/15/17 14:54,,,,,,
513,0,0,8,3,30581,9/15/17 17:17,,,,,,
513,2,1,4,1,27724,9/15/17 17:17,,,,,,
513,1,2,6,2,13132,9/15/17 17:17,,,,,,
513,8,3,5,10,8480,9/15/17 17:17,,,,,,
513,7,4,1,7,27811,9/15/17 17:18,,,,,,
514,5,0,10,3,136612,9/15/17 15:57,,,,,,
514,6,1,2,4,25510,9/15/17 15:58,,,,,,
514,2,2,9,8,3393,9/15/17 15:58,,,,,,
514,4,3,7,6,80954,9/15/17 15:59,,,,,,
514,6,4,8,5,3957,9/15/17 15:59,,,,,,
515,1,0,9,8,50655,9/15/17 13:58,,,,,,
515,1,1,5,6,34472,9/15/17 13:58,,,,,,
515,1,2,7,2,19071,9/15/17 13:59,,,,,,
515,1,3,8,3,10056,9/15/17 13:59,,,,,,
515,1,4,2,5,11406,9/15/17 13:59,,,,,,
516,6,0,5,1,31362,9/15/17 15:00,,,,,,
516,2,1,2,5,14334,9/15/17 15:00,,,,,,
516,0,2,1,10,6494,9/15/17 15:00,,,,,,
516,7,3,7,8,7344,9/15/17 15:00,,,,,,
516,3,4,3,3,16623,9/15/17 15:00,,,,,,
517,2,0,7,4,47791,9/15/17 13:54,,,,,,
517,4,1,9,8,17487,9/15/17 13:54,,,,,,
517,1,2,6,2,6870,9/15/17 13:54,,,,,,
517,3,3,5,3,11089,9/15/17 13:54,,,,,,
517,5,4,3,5,10622,9/15/17 13:54,,,,,,
518,0,0,6,2,64402,9/15/17 14:21,,,,,,
518,0,1,7,5,26538,9/15/17 14:22,,,,,,
518,8,2,5,10,19577,9/15/17 14:22,,,,,,
518,0,3,10,7,13213,9/15/17 14:23,,,,,,
