"subject","version","assignmentId","rating","question_ind","trial_ind","focal_high","alt_high","alt2_high","greenSecond","rt","stamp","id"
"A3JDWMS5QJHREI","caus_thomas_all_3_v1","3TPZPLC3M0D628CUMIGQ0BPB3QT3P1","5","0","0","3","3","3","0","26712","2017-09-26 15:57:45","15358"
"A3MFK5UEUG95M3","caus_thomas_all_3_v1","3ZR9AIQJUBAOWNRE5B6JVFG99ID40G","0","0","0","1","9","1","1","21911","2017-09-26 15:57:45","15359"
"A3MFK5UEUG95M3","caus_thomas_all_3_v1","3ZR9AIQJUBAOWNRE5B6JVFG99ID40G","0","1","1","3","7","7","1","13523","2017-09-26 15:58:00","15360"
"AQ5KOKZQSZU0B","caus_thomas_all_3_v1","3TXD01ZLD4I4C93U3IK3KM4GP7GU48","4","0","0","5","9","3","0","52236","2017-09-26 15:58:01","15361"
"A3JDWMS5QJHREI","caus_thomas_all_3_v1","3TPZPLC3M0D628CUMIGQ0BPB3QT3P1","5","1","1","9","9","5","0","15500","2017-09-26 15:58:02","15362"
"A3JDWMS5QJHREI","caus_thomas_all_3_v1","3TPZPLC3M0D628CUMIGQ0BPB3QT3P1","5","2","2","7","5","7","1","7218","2017-09-26 15:58:10","15363"
"A2B6PP2KXD19N6","caus_thomas_all_3_v1","3300DTYQT2IUCIT6BFCBJ7JIZB5EQU","7","0","0","7","7","5","1","18116","2017-09-26 15:58:12","15364"
"A3JDWMS5QJHREI","caus_thomas_all_3_v1","3TPZPLC3M0D628CUMIGQ0BPB3QT3P1","5","3","3","5","1","1","0","4350","2017-09-26 15:58:15","15365"
"A1HCTAULAAOC8A","caus_thomas_all_3_v1","3BV8HQ2ZZW2YCNTAG1WRHJC0EVV6AU","0","0","0","3","3","5","0","54366","2017-09-26 15:58:17","15366"
"A3JDWMS5QJHREI","caus_thomas_all_3_v1","3TPZPLC3M0D628CUMIGQ0BPB3QT3P1","5","4","4","1","7","9","1","3854","2017-09-26 15:58:20","15367"
"AQ5KOKZQSZU0B","caus_thomas_all_3_v1","3TXD01ZLD4I4C93U3IK3KM4GP7GU48","4","1","1","9","3","5","1","18455","2017-09-26 15:58:20","15368"
"AMTG64Z00PRT9
AMTG64Z00PRT9
","caus_thomas_all_3_v1","3L4PIM1GQTHSUOPXOVD5V0L3D9BYRT","5","0","0","1","3","3","0","22677","2017-09-26 15:58:22","15369"
"A2B6PP2KXD19N6","caus_thomas_all_3_v1","3300DTYQT2IUCIT6BFCBJ7JIZB5EQU","8","1","1","1","1","7","1","12123","2017-09-26 15:58:25","15370"
"AENW881YO2H8S","caus_thomas_all_3_v1","3Q8GYXHFEP3QMYQUVWIDV8OOI35C5M","5","0","0","3","1","9","1","25934","2017-09-26 15:58:29","15371"
"A2B6PP2KXD19N6","caus_thomas_all_3_v1","3300DTYQT2IUCIT6BFCBJ7JIZB5EQU","7","2","2","9","9","3","0","7382","2017-09-26 15:58:34","15372"
"AJ9N1D8B96693","caus_thomas_all_3_v1","3E7TUJ2EGCNJSDYKYIQ5RUB8PZ09DA","1","0","0","9","3","9","1","34635","2017-09-26 15:58:36","15373"
"A2581F7TDPAMBQ","caus_thomas_all_3_v1","39O5D9O87TTN8J3QHDUKGBQ447EC3W","6","0","0","7","9","1","0","30212","2017-09-26 15:58:37","15374"
"AQ5KOKZQSZU0B","caus_thomas_all_3_v1","3TXD01ZLD4I4C93U3IK3KM4GP7GU48","4","2","2","7","5","7","0","15953","2017-09-26 15:58:37","15375"
"AMTG64Z00PRT9
AMTG64Z00PRT9
","caus_thomas_all_3_v1","3L4PIM1GQTHSUOPXOVD5V0L3D9BYRT","5","1","1","3","9","9","1","15137","2017-09-26 15:58:38","15376"
"A52FUUEDGSZT9","caus_thomas_all_3_v1","3QXNC7EIPIWPTTXQM62ACNRPVAR90H","0","0","0","9","1","9","1","36913","2017-09-26 15:58:39","15377"
"A3RBT1V8BGYB2K","caus_thomas_all_3_v1","3DH6GAKTYYQ1WFBOYC7IH3N2MQUYZM","0","0","0","1","3","1","0","37700","2017-09-26 15:58:40","15378"
"A1HCTAULAAOC8A","caus_thomas_all_3_v1","3BV8HQ2ZZW2YCNTAG1WRHJC0EVV6AU","0","1","1","9","9","1","1","22284","2017-09-26 15:58:41","15379"
"A2B6PP2KXD19N6","caus_thomas_all_3_v1","3300DTYQT2IUCIT6BFCBJ7JIZB5EQU","8","3","3","3","5","1","1","7260","2017-09-26 15:58:42","15380"
"A2581F7TDPAMBQ","caus_thomas_all_3_v1","39O5D9O87TTN8J3QHDUKGBQ447EC3W","5","1","1","9","3","7","1","4915","2017-09-26 15:58:43","15381"
"AENW881YO2H8S","caus_thomas_all_3_v1","3Q8GYXHFEP3QMYQUVWIDV8OOI35C5M","5","1","1","5","9","5","1","13925","2017-09-26 15:58:44","15382"
"A3TMUAPCRFG63N","caus_thomas_all_3_v1","34T446B1C0FRRR4TYQC1EDSX1VUC01","7","0","0","5","3","5","0","36801","2017-09-26 15:58:45","15383"
"A24XDB55S4ZLV3","caus_thomas_all_3_v1","3TMSXRD2X610CEVGB0G24CIAY3I1W2","6","0","0","9","7","1","0","34423","2017-09-26 15:58:45","15384"
"AMTG64Z00PRT9
AMTG64Z00PRT9
","caus_thomas_all_3_v1","3L4PIM1GQTHSUOPXOVD5V0L3D9BYRT","5","2","2","5","5","1","0","6364","2017-09-26 15:58:46","15385"
"ADYMIMV1PE14V","caus_thomas_all_3_v1","3YT88D1N08Z5RHFE9QBI4U3C9GN3K0","4","0","0","9","5","3","0","40238","2017-09-26 15:58:48","15386"
"A2581F7TDPAMBQ","caus_thomas_all_3_v1","39O5D9O87TTN8J3QHDUKGBQ447EC3W","6","2","2","1","1","5","1","5727","2017-09-26 15:58:49","15387"
"A2B6PP2KXD19N6","caus_thomas_all_3_v1","3300DTYQT2IUCIT6BFCBJ7JIZB5EQU","8","4","4","5","3","9","1","7147","2017-09-26 15:58:50","15388"
"AMTG64Z00PRT9
AMTG64Z00PRT9
","caus_thomas_all_3_v1","3L4PIM1GQTHSUOPXOVD5V0L3D9BYRT","5","3","3","7","1","7","1","4479","2017-09-26 15:58:51","15389"
"AQ5KOKZQSZU0B","caus_thomas_all_3_v1","3TXD01ZLD4I4C93U3IK3KM4GP7GU48","4","3","3","1","7","1","0","13400","2017-09-26 15:58:52","15390"
"AENW881YO2H8S","caus_thomas_all_3_v1","3Q8GYXHFEP3QMYQUVWIDV8OOI35C5M","7","2","2","1","3","7","0","7420","2017-09-26 15:58:52","15391"
"A2581F7TDPAMBQ","caus_thomas_all_3_v1","39O5D9O87TTN8J3QHDUKGBQ447EC3W","6","3","3","5","5","3","0","3255","2017-09-26 15:58:54","15392"
"A3RBT1V8BGYB2K","caus_thomas_all_3_v1","3DH6GAKTYYQ1WFBOYC7IH3N2MQUYZM","0","1","1","5","5","9","1","14447","2017-09-26 15:58:55","15393"
"AE1YA7Q3UKPRI
","caus_thomas_all_3_v1","3EG49X351UDA8013RBO51RNYFG3X6O","2","0","0","1","3","7","1","36562","2017-09-26 15:58:57","15394"
"A1HCTAULAAOC8A","caus_thomas_all_3_v1","3BV8HQ2ZZW2YCNTAG1WRHJC0EVV6AU","0","2","2","7","5","7","1","15141","2017-09-26 15:58:57","15395"
"AJ9N1D8B96693","caus_thomas_all_3_v1","3E7TUJ2EGCNJSDYKYIQ5RUB8PZ09DA","1","1","1","7","5","3","1","21148","2017-09-26 15:58:58","15396"
"AMTG64Z00PRT9
AMTG64Z00PRT9
","caus_thomas_all_3_v1","3L4PIM1GQTHSUOPXOVD5V0L3D9BYRT","5","4","4","9","7","5","0","5901","2017-09-26 15:58:58","15397"
"A29CCD6DOOQCGB","caus_thomas_all_3_v1","3A0EX8ZRN8P5EH88SYRFVLGZVN9BYU","4","0","0","5","5","3","1","48234","2017-09-26 15:58:59","15398"
"A2581F7TDPAMBQ","caus_thomas_all_3_v1","39O5D9O87TTN8J3QHDUKGBQ447EC3W","3","4","4","3","7","9","0","5680","2017-09-26 15:59:00","15399"
"ADYMIMV1PE14V","caus_thomas_all_3_v1","3YT88D1N08Z5RHFE9QBI4U3C9GN3K0","5","1","1","5","7","5","0","11772","2017-09-26 15:59:01","15400"
"A52FUUEDGSZT9","caus_thomas_all_3_v1","3QXNC7EIPIWPTTXQM62ACNRPVAR90H","0","1","1","5","9","7","1","24048","2017-09-26 15:59:04","15401"
"A3RBT1V8BGYB2K","caus_thomas_all_3_v1","3DH6GAKTYYQ1WFBOYC7IH3N2MQUYZM","3","2","2","7","9","7","1","10272","2017-09-26 15:59:07","15402"
"AQ5KOKZQSZU0B","caus_thomas_all_3_v1","3TXD01ZLD4I4C93U3IK3KM4GP7GU48","4","4","4","3","1","9","0","13807","2017-09-26 15:59:07","15403"
"AENW881YO2H8S","caus_thomas_all_3_v1","3Q8GYXHFEP3QMYQUVWIDV8OOI35C5M","5","3","3","9","7","3","1","14205","2017-09-26 15:59:07","15404"
"A24XDB55S4ZLV3","caus_thomas_all_3_v1","3TMSXRD2X610CEVGB0G24CIAY3I1W2","6","1","1","7","1","5","0","23058","2017-09-26 15:59:09","15405"
"AJ9N1D8B96693","caus_thomas_all_3_v1","3E7TUJ2EGCNJSDYKYIQ5RUB8PZ09DA","1","2","2","1","1","5","0","11724","2017-09-26 15:59:10","15406"
"ADYMIMV1PE14V","caus_thomas_all_3_v1","3YT88D1N08Z5RHFE9QBI4U3C9GN3K0","4","2","2","7","3","1","1","8771","2017-09-26 15:59:11","15407"
"AE1YA7Q3UKPRI
","caus_thomas_all_3_v1","3EG49X351UDA8013RBO51RNYFG3X6O","4","1","1","9","9","3","0","14277","2017-09-26 15:59:12","15408"
"A1HCTAULAAOC8A","caus_thomas_all_3_v1","3BV8HQ2ZZW2YCNTAG1WRHJC0EVV6AU","0","3","3","1","1","3","0","13899","2017-09-26 15:59:15","15409"
"A2LZ9KG42SZ3I0","caus_thomas_all_3_v1","3MX2NQ3YC9VEPW1PMSE09L9YJLSX58","5","0","0","5","1","9","1","42783","2017-09-26 15:59:15","15410"
"A3RBT1V8BGYB2K","caus_thomas_all_3_v1","3DH6GAKTYYQ1WFBOYC7IH3N2MQUYZM","4","3","3","3","7","5","1","7454","2017-09-26 15:59:15","15411"
"AENW881YO2H8S","caus_thomas_all_3_v1","3Q8GYXHFEP3QMYQUVWIDV8OOI35C5M","4","4","4","7","5","1","0","10170","2017-09-26 15:59:19","15412"
"ADYMIMV1PE14V","caus_thomas_all_3_v1","3YT88D1N08Z5RHFE9QBI4U3C9GN3K0","4","3","3","3","9","9","1","8048","2017-09-26 15:59:20","15413"
"AJ9N1D8B96693","caus_thomas_all_3_v1","3E7TUJ2EGCNJSDYKYIQ5RUB8PZ09DA","1","3","3","3","9","1","0","9397","2017-09-26 15:59:21","15414"
"A24XDB55S4ZLV3","caus_thomas_all_3_v1","3TMSXRD2X610CEVGB0G24CIAY3I1W2","6","2","2","3","5","3","1","11266","2017-09-26 15:59:21","15415"
"A29CCD6DOOQCGB","caus_thomas_all_3_v1","3A0EX8ZRN8P5EH88SYRFVLGZVN9BYU","2","1","1","7","1","7","1","23463","2017-09-26 15:59:24","15416"
"A1HCTAULAAOC8A","caus_thomas_all_3_v1","3BV8HQ2ZZW2YCNTAG1WRHJC0EVV6AU","0","4","4","5","7","9","1","11302","2017-09-26 15:59:24","15417"
"A3RBT1V8BGYB2K","caus_thomas_all_3_v1","3DH6GAKTYYQ1WFBOYC7IH3N2MQUYZM","0","4","4","9","1","3","1","8295","2017-09-26 15:59:24","15418"
"A3LV60O7E3XAN4","caus_thomas_all_3_v1","3UNH76FOCS61X8C5JNHO91RT7MCYM5","5","0","0","1","7","9","1","39423","2017-09-26 15:59:24","15419"
"ADYMIMV1PE14V","caus_thomas_all_3_v1","3YT88D1N08Z5RHFE9QBI4U3C9GN3K0","4","4","4","1","1","7","0","6655","2017-09-26 15:59:28","15420"
"A52FUUEDGSZT9","caus_thomas_all_3_v1","3QXNC7EIPIWPTTXQM62ACNRPVAR90H","0","2","2","1","3","5","0","24239","2017-09-26 15:59:29","15421"
"AE1YA7Q3UKPRI
","caus_thomas_all_3_v1","3EG49X351UDA8013RBO51RNYFG3X6O","3","2","2","3","5","1","0","17300","2017-09-26 15:59:30","15422"
"AJ9N1D8B96693","caus_thomas_all_3_v1","3E7TUJ2EGCNJSDYKYIQ5RUB8PZ09DA","1","4","4","5","7","7","1","10742","2017-09-26 15:59:33","15423"
"A2LZ9KG42SZ3I0","caus_thomas_all_3_v1","3MX2NQ3YC9VEPW1PMSE09L9YJLSX58","5","1","1","7","5","5","0","16940","2017-09-26 15:59:33","15424"
"A3TS8YBCID5149","caus_thomas_all_3_v1","3DR23U6WE5F74YLYSJ66OCU5JI4ET8","2","0","0","5","5","5","0","42142","2017-09-26 15:59:33","15425"
"A3LV60O7E3XAN4","caus_thomas_all_3_v1","3UNH76FOCS61X8C5JNHO91RT7MCYM5","3","1","1","5","3","3","0","10301","2017-09-26 15:59:36","15426"
"A24XDB55S4ZLV3","caus_thomas_all_3_v1","3TMSXRD2X610CEVGB0G24CIAY3I1W2","6","3","3","1","9","9","0","17355","2017-09-26 15:59:40","15427"
"A29CCD6DOOQCGB","caus_thomas_all_3_v1","3A0EX8ZRN8P5EH88SYRFVLGZVN9BYU","6","2","2","1","3","1","1","18085","2017-09-26 15:59:43","15428"
"A2LZ9KG42SZ3I0","caus_thomas_all_3_v1","3MX2NQ3YC9VEPW1PMSE09L9YJLSX58","5","2","2","9","9","7","0","9350","2017-09-26 15:59:43","15429"
"AE1YA7Q3UKPRI
","caus_thomas_all_3_v1","3EG49X351UDA8013RBO51RNYFG3X6O","3","3","3","5","7","9","0","14149","2017-09-26 15:59:45","15430"
"A1Y8EIQPPNGVTC","caus_thomas_all_3_v1","32SVAV9L3FAZF46SXZYTAG0G44TA3S","1","0","0","3","3","7","1","40995","2017-09-26 15:59:47","15431"
"A52FUUEDGSZT9","caus_thomas_all_3_v1","3QXNC7EIPIWPTTXQM62ACNRPVAR90H","0","3","3","7","5","1","0","21075","2017-09-26 15:59:52","15432"
"A3MFK5UEUG95M3","caus_thomas_all_3_v1","3ZR9AIQJUBAOWNRE5B6JVFG99ID40G","0","2","2","7","1","9","1","110444","2017-09-26 15:59:52","15433"
"AK86DN5LJDCCK","caus_thomas_all_3_v1","35DR22AR5DLBBHEL89Q7UOBE5P1X3I","0","0","0","1","1","3","0","75789","2017-09-26 15:59:53","15434"
"A24XDB55S4ZLV3","caus_thomas_all_3_v1","3TMSXRD2X610CEVGB0G24CIAY3I1W2","6","4","4","5","3","7","0","11363","2017-09-26 15:59:53","15435"
"A2LZ9KG42SZ3I0","caus_thomas_all_3_v1","3MX2NQ3YC9VEPW1PMSE09L9YJLSX58","5","3","3","3","3","1","1","9637","2017-09-26 15:59:54","15436"
"A289DF24X3Q8JZ
","caus_thomas_all_3_v1","3DY46V3X3PJ5NDHFGMV5H2IEQMJ557","8","0","0","7","1","1","1","21824","2017-09-26 15:59:55","15437"
"A3TS8YBCID5149","caus_thomas_all_3_v1","3DR23U6WE5F74YLYSJ66OCU5JI4ET8","0","1","1","3","7","1","0","22606","2017-09-26 15:59:56","15438"
"A3L2FPKRD46FRW
","caus_thomas_all_3_v1","3GS6S824SQY3QL25GNE01JVD14MWN4","6","0","0","9","3","3","1","133863","2017-09-26 15:59:57","15439"
"A3MFK5UEUG95M3","caus_thomas_all_3_v1","3ZR9AIQJUBAOWNRE5B6JVFG99ID40G","0","3","3","9","5","3","0","4948","2017-09-26 15:59:57","15440"
"A2LZ9KG42SZ3I0","caus_thomas_all_3_v1","3MX2NQ3YC9VEPW1PMSE09L9YJLSX58","5","4","4","1","7","3","1","3250","2017-09-26 15:59:58","15441"
"A3N8JP3QR3VPE8","caus_thomas_all_3_v1","35K3O9HUABEXLT3XXZ1H78F4S9WFE1","6","0","0","1","3","9","0","27931","2017-09-26 16:00:01","15442"
"A3MFK5UEUG95M3","caus_thomas_all_3_v1","3ZR9AIQJUBAOWNRE5B6JVFG99ID40G","0","4","4","5","3","5","0","3069","2017-09-26 16:00:03","15443"
"A29CCD6DOOQCGB","caus_thomas_all_3_v1","3A0EX8ZRN8P5EH88SYRFVLGZVN9BYU","5","3","3","3","9","5","0","19325","2017-09-26 16:00:03","15444"
"A289DF24X3Q8JZ
","caus_thomas_all_3_v1","3DY46V3X3PJ5NDHFGMV5H2IEQMJ557","4","1","1","3","3","3","0","7386","2017-09-26 16:00:03","15445"
"A52FUUEDGSZT9","caus_thomas_all_3_v1","3QXNC7EIPIWPTTXQM62ACNRPVAR90H","0","4","4","3","7","3","0","10937","2017-09-26 16:00:04","15446"
"A289DF24X3Q8JZ
","caus_thomas_all_3_v1","3DY46V3X3PJ5NDHFGMV5H2IEQMJ557","0","2","2","1","5","9","0","4972","2017-09-26 16:00:09","15447"
"A3V9JJ6C3T0D4X","caus_thomas_all_3_v1","39ZSFO5CA8XUFRMF6P77QOTZ747JUP","8","0","0","1","5","1","1","41504","2017-09-26 16:00:10","15448"
"A3TS8YBCID5149","caus_thomas_all_3_v1","3DR23U6WE5F74YLYSJ66OCU5JI4ET8","7","2","2","7","1","3","0","13158","2017-09-26 16:00:11","15449"
"ASFJ6WKFULUJT","caus_thomas_all_3_v1","3XUHV3NRVKZH361AHOWE6ZL4VVA5HO","4","0","0","3","1","9","0","10079","2017-09-26 16:00:13","15450"
"AU9X0E69D6RCE","caus_thomas_all_3_v1","33LKR6A5KEL8KXRMGVBRHSBBU901TC","0","0","0","9","5","7","0","84916","2017-09-26 16:00:14","15451"
"A3TMUAPCRFG63N","caus_thomas_all_3_v1","34T446B1C0FRRR4TYQC1EDSX1VUC01","7","1","1","7","7","9","0","89332","2017-09-26 16:00:15","15452"
"A289DF24X3Q8JZ
","caus_thomas_all_3_v1","3DY46V3X3PJ5NDHFGMV5H2IEQMJ557","2","3","3","5","9","5","1","6092","2017-09-26 16:00:17","15453"
"A3TS8YBCID5149","caus_thomas_all_3_v1","3DR23U6WE5F74YLYSJ66OCU5JI4ET8","8","3","3","9","3","7","0","6494","2017-09-26 16:00:18","15454"
"A3N8JP3QR3VPE8","caus_thomas_all_3_v1","35K3O9HUABEXLT3XXZ1H78F4S9WFE1","3","1","1","5","9","5","0","17194","2017-09-26 16:00:20","15455"
"A3LV60O7E3XAN4","caus_thomas_all_3_v1","3UNH76FOCS61X8C5JNHO91RT7MCYM5","0","2","2","7","5","7","1","42946","2017-09-26 16:00:20","15456"
"A1IMU6GWPN1Y9D","caus_thomas_all_3_v1","3WJ1OXY92AHLG1CY9GTP1X8RKQLA8K","8","0","0","5","7","9","0","70298","2017-09-26 16:00:20","15457"
"ASFJ6WKFULUJT","caus_thomas_all_3_v1","3XUHV3NRVKZH361AHOWE6ZL4VVA5HO","5","1","1","9","9","1","1","5853","2017-09-26 16:00:20","15458"
"A289DF24X3Q8JZ
","caus_thomas_all_3_v1","3DY46V3X3PJ5NDHFGMV5H2IEQMJ557","8","4","4","9","7","7","0","3784","2017-09-26 16:00:21","15459"
"A1Y8EIQPPNGVTC","caus_thomas_all_3_v1","32SVAV9L3FAZF46SXZYTAG0G44TA3S","6","1","1","5","5","1","0","33819","2017-09-26 16:00:22","15460"
"AMCMDNY8PH2IX","caus_thomas_all_3_v1","3A4TN5196KJ22RAPWYJMK5RENCWHC8","0","0","0","1","3","5","0","38840","2017-09-26 16:00:23","15461"
"A3F0NFNLOLFJT0","caus_thomas_all_3_v1","3K4J6M3CXEU09GIGSE5DTAPP89YAG0","4","0","0","7","9","7","1","74216","2017-09-26 16:00:24","15462"
"ASFJ6WKFULUJT","caus_thomas_all_3_v1","3XUHV3NRVKZH361AHOWE6ZL4VVA5HO","5","2","2","1","3","3","0","4448","2017-09-26 16:00:26","15463"
"A29CCD6DOOQCGB","caus_thomas_all_3_v1","3A0EX8ZRN8P5EH88SYRFVLGZVN9BYU","3","4","4","9","7","9","1","21481","2017-09-26 16:00:26","15464"
"A3TMUAPCRFG63N","caus_thomas_all_3_v1","34T446B1C0FRRR4TYQC1EDSX1VUC01","8","2","2","1","1","1","0","9973","2017-09-26 16:00:26","15465"
"A3TS8YBCID5149","caus_thomas_all_3_v1","3DR23U6WE5F74YLYSJ66OCU5JI4ET8","8","4","4","1","9","9","0","7784","2017-09-26 16:00:27","15466"
"AVFHRN0S32V2H","caus_thomas_all_3_v1","354P56DE9K4LGJT9GBNA8X62VCM7SQ","0","0","0","5","9","7","1","33314","2017-09-26 16:00:28","15467"
"ASFJ6WKFULUJT","caus_thomas_all_3_v1","3XUHV3NRVKZH361AHOWE6ZL4VVA5HO","6","3","3","5","7","5","1","3117","2017-09-26 16:00:30","15468"
"A1PTX4IB9R34LI","caus_thomas_all_3_v1","31UV0MXWNQDHZ1CUN6EZ6BMJV8P5IH","5","0","0","3","1","1","1","14288","2017-09-26 16:00:30","15469"
"A3N8JP3QR3VPE8","caus_thomas_all_3_v1","35K3O9HUABEXLT3XXZ1H78F4S9WFE1","5","2","2","3","5","3","1","10501","2017-09-26 16:00:31","15470"
"A3LV60O7E3XAN4","caus_thomas_all_3_v1","3UNH76FOCS61X8C5JNHO91RT7MCYM5","0","3","3","9","9","1","0","10623","2017-09-26 16:00:31","15471"
"A3F0NFNLOLFJT0","caus_thomas_all_3_v1","3K4J6M3CXEU09GIGSE5DTAPP89YAG0","4","1","1","1","7","9","1","6882","2017-09-26 16:00:32","15472"
"ASFJ6WKFULUJT","caus_thomas_all_3_v1","3XUHV3NRVKZH361AHOWE6ZL4VVA5HO","8","4","4","7","5","7","1","1700","2017-09-26 16:00:32","15473"
"A2ZBDSR2LZNVAE","caus_thomas_all_3_v1","3A1COHJ8NJW0QOKCFM3HIJVVXLBH82","7","0","0","9","7","3","0","51276","2017-09-26 16:00:35","15474"
"A3V9JJ6C3T0D4X","caus_thomas_all_3_v1","39ZSFO5CA8XUFRMF6P77QOTZ747JUP","8","1","1","3","7","3","1","24999","2017-09-26 16:00:36","15475"
"A3TMUAPCRFG63N","caus_thomas_all_3_v1","34T446B1C0FRRR4TYQC1EDSX1VUC01","8","3","3","3","5","7","1","11100","2017-09-26 16:00:38","15476"
"A1IMU6GWPN1Y9D","caus_thomas_all_3_v1","3WJ1OXY92AHLG1CY9GTP1X8RKQLA8K","0","1","1","9","3","5","0","18014","2017-09-26 16:00:39","15477"
"A3L2FPKRD46FRW
","caus_thomas_all_3_v1","3GS6S824SQY3QL25GNE01JVD14MWN4","6","1","1","7","9","1","0","42207","2017-09-26 16:00:40","15478"
"A3LV60O7E3XAN4","caus_thomas_all_3_v1","3UNH76FOCS61X8C5JNHO91RT7MCYM5","2","4","4","3","1","5","1","10188","2017-09-26 16:00:43","15479"
"A3N8JP3QR3VPE8","caus_thomas_all_3_v1","35K3O9HUABEXLT3XXZ1H78F4S9WFE1","4","3","3","9","1","7","1","11099","2017-09-26 16:00:43","15480"
"AMCMDNY8PH2IX","caus_thomas_all_3_v1","3A4TN5196KJ22RAPWYJMK5RENCWHC8","4","1","1","5","5","3","1","19757","2017-09-26 16:00:43","15481"
"AK86DN5LJDCCK","caus_thomas_all_3_v1","35DR22AR5DLBBHEL89Q7UOBE5P1X3I","0","1","1","9","3","7","1","51212","2017-09-26 16:00:45","15482"
"AVFHRN0S32V2H","caus_thomas_all_3_v1","354P56DE9K4LGJT9GBNA8X62VCM7SQ","0","1","1","1","5","9","0","16735","2017-09-26 16:00:46","15483"
"AU9X0E69D6RCE","caus_thomas_all_3_v1","33LKR6A5KEL8KXRMGVBRHSBBU901TC","0","1","1","3","1","9","0","30361","2017-09-26 16:00:46","15484"
"A1PTX4IB9R34LI","caus_thomas_all_3_v1","31UV0MXWNQDHZ1CUN6EZ6BMJV8P5IH","6","1","1","1","5","7","0","15366","2017-09-26 16:00:46","15485"
"A173LV77LF3SHB","caus_thomas_all_3_v1","3JNQLM5FT4NRQ51DQQ9E0KBZS2S2LR","3","0","0","7","5","3","0","76090","2017-09-26 16:00:50","15486"
"A3V9JJ6C3T0D4X","caus_thomas_all_3_v1","39ZSFO5CA8XUFRMF6P77QOTZ747JUP","8","2","2","5","1","9","0","12874","2017-09-26 16:00:50","15487"
"A1Y8EIQPPNGVTC","caus_thomas_all_3_v1","32SVAV9L3FAZF46SXZYTAG0G44TA3S","6","2","2","9","7","9","0","27474","2017-09-26 16:00:51","15488"
"A3F0NFNLOLFJT0","caus_thomas_all_3_v1","3K4J6M3CXEU09GIGSE5DTAPP89YAG0","4","2","2","9","1","1","1","17453","2017-09-26 16:00:51","15489"
"A1IMU6GWPN1Y9D","caus_thomas_all_3_v1","3WJ1OXY92AHLG1CY9GTP1X8RKQLA8K","8","2","2","7","5","3","0","11165","2017-09-26 16:00:51","15490"
"A1PTX4IB9R34LI","caus_thomas_all_3_v1","31UV0MXWNQDHZ1CUN6EZ6BMJV8P5IH","5","2","2","5","9","9","1","7008","2017-09-26 16:00:54","15491"
"A3F0NFNLOLFJT0","caus_thomas_all_3_v1","3K4J6M3CXEU09GIGSE5DTAPP89YAG0","4","3","3","3","5","3","1","4084","2017-09-26 16:00:56","15492"
"A3L2FPKRD46FRW
","caus_thomas_all_3_v1","3GS6S824SQY3QL25GNE01JVD14MWN4","6","2","2","3","7","7","0","14972","2017-09-26 16:00:56","15493"
"A3TMUAPCRFG63N","caus_thomas_all_3_v1","34T446B1C0FRRR4TYQC1EDSX1VUC01","6","4","4","9","9","3","1","17202","2017-09-26 16:00:57","15494"
"A1IMU6GWPN1Y9D","caus_thomas_all_3_v1","3WJ1OXY92AHLG1CY9GTP1X8RKQLA8K","8","3","3","3","9","7","0","6331","2017-09-26 16:00:59","15495"
"AVFHRN0S32V2H","caus_thomas_all_3_v1","354P56DE9K4LGJT9GBNA8X62VCM7SQ","0","2","2","3","7","1","0","12051","2017-09-26 16:00:59","15496"
"A2ZBDSR2LZNVAE","caus_thomas_all_3_v1","3A1COHJ8NJW0QOKCFM3HIJVVXLBH82","6","1","1","5","1","1","1","23361","2017-09-26 16:01:00","15497"
"AMCMDNY8PH2IX","caus_thomas_all_3_v1","3A4TN5196KJ22RAPWYJMK5RENCWHC8","2","2","2","7","1","1","1","16944","2017-09-26 16:01:01","15498"
"A3F0NFNLOLFJT0","caus_thomas_all_3_v1","3K4J6M3CXEU09GIGSE5DTAPP89YAG0","4","4","4","5","3","5","1","4770","2017-09-26 16:01:02","15499"
"A1PTX4IB9R34LI","caus_thomas_all_3_v1","31UV0MXWNQDHZ1CUN6EZ6BMJV8P5IH","5","3","3","7","7","3","1","6584","2017-09-26 16:01:02","15500"
"A3N8JP3QR3VPE8","caus_thomas_all_3_v1","35K3O9HUABEXLT3XXZ1H78F4S9WFE1","6","4","4","7","7","1","1","17684","2017-09-26 16:01:02","15501"
"A0623383IMO25HCSBET7","caus_thomas_all_3_v1","3I7DHKZYGN1XPAA4MY8E3E9RFGX5FQ","4","0","0","7","7","3","0","48656","2017-09-26 16:01:03","15502"
"A16HSMUJ7C7QA7","caus_thomas_all_3_v1","3G2UL9A02DFGTLVC9YK77SAADNP764","6","0","0","9","5","1","1","29780","2017-09-26 16:01:04","15503"
"A1PTX4IB9R34LI","caus_thomas_all_3_v1","31UV0MXWNQDHZ1CUN6EZ6BMJV8P5IH","6","4","4","9","3","5","1","4208","2017-09-26 16:01:07","15504"
"AVFHRN0S32V2H","caus_thomas_all_3_v1","354P56DE9K4LGJT9GBNA8X62VCM7SQ","0","3","3","7","3","3","0","9353","2017-09-26 16:01:09","15505"
"AK86DN5LJDCCK","caus_thomas_all_3_v1","35DR22AR5DLBBHEL89Q7UOBE5P1X3I","0","2","2","7","9","5","0","25324","2017-09-26 16:01:11","15506"
"A2P5IL629E7EC8","caus_thomas_all_3_v1","3R9WASFE2ZHVWOUTTMFUSIGMGF5FZ7","4","0","0","1","7","1","0","42278","2017-09-26 16:01:13","15507"
" A3QYQSFE594CV6
","caus_thomas_all_3_v1","3FDJT1UU74985W2IN9ZBJR1WNCEK57","1","0","0","7","5","7","0","54887","2017-09-26 16:01:14","15508"
"AMCMDNY8PH2IX","caus_thomas_all_3_v1","3A4TN5196KJ22RAPWYJMK5RENCWHC8","6","3","3","9","7","9","1","13962","2017-09-26 16:01:16","15509"
"A1Y8EIQPPNGVTC","caus_thomas_all_3_v1","32SVAV9L3FAZF46SXZYTAG0G44TA3S","6","3","3","7","1","5","0","24829","2017-09-26 16:01:17","15510"
"A2UP31CCCRMM6W","caus_thomas_all_3_v1","3TY7ZAOG5FL9APGHQ3TZ2W55643K0M","5","0","0","9","1","9","1","95618","2017-09-26 16:01:17","15511"
"AU9X0E69D6RCE","caus_thomas_all_3_v1","33LKR6A5KEL8KXRMGVBRHSBBU901TC","0","2","2","1","7","5","0","31187","2017-09-26 16:01:18","15512"
"A3V9JJ6C3T0D4X","caus_thomas_all_3_v1","39ZSFO5CA8XUFRMF6P77QOTZ747JUP","3","3","3","9","3","5","1","27601","2017-09-26 16:01:19","15513"
"A173LV77LF3SHB","caus_thomas_all_3_v1","3JNQLM5FT4NRQ51DQQ9E0KBZS2S2LR","6","1","1","1","7","7","0","29472","2017-09-26 16:01:20","15514"
"A2ZBDSR2LZNVAE","caus_thomas_all_3_v1","3A1COHJ8NJW0QOKCFM3HIJVVXLBH82","6","2","2","7","3","7","0","23534","2017-09-26 16:01:24","15515"
"A26XF8O4XRL8JA","caus_thomas_all_3_v1","33FBRBDW6O099G9WTUPG7SYFKT68CK","0","0","0","7","1","3","0","32351","2017-09-26 16:01:25","15516"
"AVFHRN0S32V2H","caus_thomas_all_3_v1","354P56DE9K4LGJT9GBNA8X62VCM7SQ","0","4","4","9","1","5","0","15855","2017-09-26 16:01:26","15517"
"A16HSMUJ7C7QA7","caus_thomas_all_3_v1","3G2UL9A02DFGTLVC9YK77SAADNP764","4","1","1","5","1","9","1","21342","2017-09-26 16:01:26","15518"
"A0623383IMO25HCSBET7","caus_thomas_all_3_v1","3I7DHKZYGN1XPAA4MY8E3E9RFGX5FQ","4","1","1","9","3","9","1","23117","2017-09-26 16:01:28","15519"
"A3V9JJ6C3T0D4X","caus_thomas_all_3_v1","39ZSFO5CA8XUFRMF6P77QOTZ747JUP","8","4","4","7","9","7","1","8187","2017-09-26 16:01:28","15520"
"A3L2FPKRD46FRW
","caus_thomas_all_3_v1","3GS6S824SQY3QL25GNE01JVD14MWN4","6","3","3","1","5","5","1","30664","2017-09-26 16:01:28","15521"
"AMCMDNY8PH2IX","caus_thomas_all_3_v1","3A4TN5196KJ22RAPWYJMK5RENCWHC8","2","4","4","3","9","7","1","11364","2017-09-26 16:01:29","15522"
"A1IMU6GWPN1Y9D","caus_thomas_all_3_v1","3WJ1OXY92AHLG1CY9GTP1X8RKQLA8K","8","4","4","1","1","1","0","30254","2017-09-26 16:01:30","15523"
"A2P5IL629E7EC8","caus_thomas_all_3_v1","3R9WASFE2ZHVWOUTTMFUSIGMGF5FZ7","4","1","1","5","5","5","0","17729","2017-09-26 16:01:32","15524"
"A2UP31CCCRMM6W","caus_thomas_all_3_v1","3TY7ZAOG5FL9APGHQ3TZ2W55643K0M","4","1","1","7","7","1","0","17578","2017-09-26 16:01:35","15525"
"A173LV77LF3SHB","caus_thomas_all_3_v1","3JNQLM5FT4NRQ51DQQ9E0KBZS2S2LR","6","2","2","5","3","9","0","14339","2017-09-26 16:01:36","15526"
"A3SHLGG66PJXEB","caus_thomas_all_3_v1","3CFVK00FWLMF86KEDSLHQXSB87UL6R","1","0","0","1","1","5","1","23154","2017-09-26 16:01:36","15527"
"A3L2FPKRD46FRW
","caus_thomas_all_3_v1","3GS6S824SQY3QL25GNE01JVD14MWN4","6","4","4","5","1","9","1","8651","2017-09-26 16:01:38","15528"
"A1Y8EIQPPNGVTC","caus_thomas_all_3_v1","32SVAV9L3FAZF46SXZYTAG0G44TA3S","8","4","4","1","9","3","1","22848","2017-09-26 16:01:41","15529"
"A2P5IL629E7EC8","caus_thomas_all_3_v1","3R9WASFE2ZHVWOUTTMFUSIGMGF5FZ7","4","2","2","3","3","3","1","8605","2017-09-26 16:01:42","15530"
"A2ZBDSR2LZNVAE","caus_thomas_all_3_v1","3A1COHJ8NJW0QOKCFM3HIJVVXLBH82","7","3","3","1","5","9","1","16778","2017-09-26 16:01:42","15531"
"AK86DN5LJDCCK","caus_thomas_all_3_v1","35DR22AR5DLBBHEL89Q7UOBE5P1X3I","0","3","3","5","5","9","1","31974","2017-09-26 16:01:44","15532"
" A3QYQSFE594CV6
","caus_thomas_all_3_v1","3FDJT1UU74985W2IN9ZBJR1WNCEK57","1","1","1","1","7","1","1","29542","2017-09-26 16:01:44","15533"
"A3SHLGG66PJXEB","caus_thomas_all_3_v1","3CFVK00FWLMF86KEDSLHQXSB87UL6R","6","1","1","5","5","9","0","7861","2017-09-26 16:01:45","15534"
"AU9X0E69D6RCE","caus_thomas_all_3_v1","33LKR6A5KEL8KXRMGVBRHSBBU901TC","0","3","3","5","9","3","0","26038","2017-09-26 16:01:45","15535"
"AE1YA7Q3UKPRI
","caus_thomas_all_3_v1","3EG49X351UDA8013RBO51RNYFG3X6O","4","4","4","7","1","5","0","119652","2017-09-26 16:01:46","15536"
"A2P5IL629E7EC8","caus_thomas_all_3_v1","3R9WASFE2ZHVWOUTTMFUSIGMGF5FZ7","4","3","3","9","9","7","1","4775","2017-09-26 16:01:47","15537"
"A0623383IMO25HCSBET7","caus_thomas_all_3_v1","3I7DHKZYGN1XPAA4MY8E3E9RFGX5FQ","4","2","2","3","9","7","1","20069","2017-09-26 16:01:49","15538"
"A16HSMUJ7C7QA7","caus_thomas_all_3_v1","3G2UL9A02DFGTLVC9YK77SAADNP764","4","2","2","3","9","3","0","21738","2017-09-26 16:01:49","15539"
"A26XF8O4XRL8JA","caus_thomas_all_3_v1","33FBRBDW6O099G9WTUPG7SYFKT68CK","0","1","1","1","9","9","0","24111","2017-09-26 16:01:50","15540"
"A173LV77LF3SHB","caus_thomas_all_3_v1","3JNQLM5FT4NRQ51DQQ9E0KBZS2S2LR","2","3","3","9","9","5","1","14198","2017-09-26 16:01:51","15541"
"A2P5IL629E7EC8","caus_thomas_all_3_v1","3R9WASFE2ZHVWOUTTMFUSIGMGF5FZ7","4","4","4","7","1","9","0","6469","2017-09-26 16:01:55","15542"
"A2ZBDSR2LZNVAE","caus_thomas_all_3_v1","3A1COHJ8NJW0QOKCFM3HIJVVXLBH82","7","4","4","3","9","5","0","12348","2017-09-26 16:01:55","15543"
"A3SHLGG66PJXEB","caus_thomas_all_3_v1","3CFVK00FWLMF86KEDSLHQXSB87UL6R","4","2","2","7","9","3","1","10191","2017-09-26 16:01:56","15544"
"A173LV77LF3SHB","caus_thomas_all_3_v1","3JNQLM5FT4NRQ51DQQ9E0KBZS2S2LR","1","4","4","3","1","1","0","11778","2017-09-26 16:02:04","15545"
"A26XF8O4XRL8JA","caus_thomas_all_3_v1","33FBRBDW6O099G9WTUPG7SYFKT68CK","0","2","2","9","7","1","0","14394","2017-09-26 16:02:06","15546"
"A3SHLGG66PJXEB","caus_thomas_all_3_v1","3CFVK00FWLMF86KEDSLHQXSB87UL6R","3","3","3","3","7","1","0","9860","2017-09-26 16:02:07","15547"
"AU9X0E69D6RCE","caus_thomas_all_3_v1","33LKR6A5KEL8KXRMGVBRHSBBU901TC","0","4","4","7","3","1","0","22222","2017-09-26 16:02:08","15548"
"A2UP31CCCRMM6W","caus_thomas_all_3_v1","3TY7ZAOG5FL9APGHQ3TZ2W55643K0M","5","2","2","3","5","3","0","32548","2017-09-26 16:02:09","15549"
"A1B6EGCM2DNDPC","caus_thomas_all_3_v1","3LPW2N6LKT3M8S7UHN3DPEAUP3C5UP","0","0","0","1","9","1","0","54434","2017-09-26 16:02:10","15550"
"A16HSMUJ7C7QA7","caus_thomas_all_3_v1","3G2UL9A02DFGTLVC9YK77SAADNP764","4","3","3","1","7","5","1","20619","2017-09-26 16:02:11","15551"
"A0623383IMO25HCSBET7","caus_thomas_all_3_v1","3I7DHKZYGN1XPAA4MY8E3E9RFGX5FQ","4","3","3","1","1","1","1","21662","2017-09-26 16:02:11","15552"
" A3QYQSFE594CV6
","caus_thomas_all_3_v1","3FDJT1UU74985W2IN9ZBJR1WNCEK57","8","2","2","9","9","9","1","27261","2017-09-26 16:02:13","15553"
"A3SHLGG66PJXEB","caus_thomas_all_3_v1","3CFVK00FWLMF86KEDSLHQXSB87UL6R","8","4","4","9","3","7","0","4841","2017-09-26 16:02:13","15554"
"A1GT1TB5Q5CBWN","caus_thomas_all_3_v1","3FQ5JJ512LPCVL8OR9VXD81IEXEKNX","5","0","0","9","5","9","1","68436","2017-09-26 16:02:19","15555"
"A16HSMUJ7C7QA7","caus_thomas_all_3_v1","3G2UL9A02DFGTLVC9YK77SAADNP764","5","4","4","7","3","7","0","8742","2017-09-26 16:02:20","15556"
"A34VJCZX2WPJ6E
A34VJCZX2WPJ6E
A34VJCZX2WPJ6E
A34VJCZX2WPJ6E","caus_thomas_all_3_v1","39ZSFO5CA8XUFRMF6P77QOTZ746UJZ","7","0","0","7","5","7","1","40080","2017-09-26 16:02:21","15557"
"A2UP31CCCRMM6W","caus_thomas_all_3_v1","3TY7ZAOG5FL9APGHQ3TZ2W55643K0M","6","3","3","1","9","5","0","10829","2017-09-26 16:02:21","15558"
"A0623383IMO25HCSBET7","caus_thomas_all_3_v1","3I7DHKZYGN1XPAA4MY8E3E9RFGX5FQ","4","4","4","5","5","5","0","14813","2017-09-26 16:02:27","15559"
"A26XF8O4XRL8JA","caus_thomas_all_3_v1","33FBRBDW6O099G9WTUPG7SYFKT68CK","0","3","3","3","5","7","0","20399","2017-09-26 16:02:27","15560"
"A1637SWTM0JDXR","caus_thomas_all_3_v1","3PM8NZGV8YH3IIKN6K237W4PFHGXQM","1","0","0","1","1","9","1","51178","2017-09-26 16:02:28","15561"
" A3QYQSFE594CV6
","caus_thomas_all_3_v1","3FDJT1UU74985W2IN9ZBJR1WNCEK57","8","3","3","5","1","5","0","17773","2017-09-26 16:02:31","15562"
"A2UP31CCCRMM6W","caus_thomas_all_3_v1","3TY7ZAOG5FL9APGHQ3TZ2W55643K0M","5","4","4","5","3","7","0","11675","2017-09-26 16:02:33","15563"
"A1B6EGCM2DNDPC","caus_thomas_all_3_v1","3LPW2N6LKT3M8S7UHN3DPEAUP3C5UP","0","1","1","7","7","3","1","27567","2017-09-26 16:02:39","15564"
"A34VJCZX2WPJ6E
A34VJCZX2WPJ6E
A34VJCZX2WPJ6E
A34VJCZX2WPJ6E","caus_thomas_all_3_v1","39ZSFO5CA8XUFRMF6P77QOTZ746UJZ","8","1","1","5","1","3","0","18968","2017-09-26 16:02:41","15565"
"A1GT1TB5Q5CBWN","caus_thomas_all_3_v1","3FQ5JJ512LPCVL8OR9VXD81IEXEKNX","5","1","1","1","9","3","1","22089","2017-09-26 16:02:42","15566"
"A26XF8O4XRL8JA","caus_thomas_all_3_v1","33FBRBDW6O099G9WTUPG7SYFKT68CK","0","4","4","5","3","5","0","15611","2017-09-26 16:02:44","15567"
"AK86DN5LJDCCK","caus_thomas_all_3_v1","35DR22AR5DLBBHEL89Q7UOBE5P1X3I","0","4","4","3","7","1","1","60709","2017-09-26 16:02:46","15568"
"A2REWST36O8LTU","caus_thomas_all_3_v1","3A4NIXBJ760HX95608SYFTPXY79LM1","4","0","0","9","9","1","0","24995","2017-09-26 16:02:51","15569"
"A34VJCZX2WPJ6E
A34VJCZX2WPJ6E
A34VJCZX2WPJ6E
A34VJCZX2WPJ6E","caus_thomas_all_3_v1","39ZSFO5CA8XUFRMF6P77QOTZ746UJZ","0","2","2","1","7","9","0","10050","2017-09-26 16:02:52","15570"
"A1637SWTM0JDXR","caus_thomas_all_3_v1","3PM8NZGV8YH3IIKN6K237W4PFHGXQM","3","1","1","3","7","7","0","23159","2017-09-26 16:02:52","15571"
"A21P1T8EW4NHOU","caus_thomas_all_3_v1","379J5II41OHJLLDTJA4F2LKOP5IEL5","1","0","0","3","7","3","1","22581","2017-09-26 16:02:56","15572"
"A1FSPD1LIOXCN1","caus_thomas_all_3_v1","3BQU611VFPL7PNL3M2L35YSIYEL99T","1","0","0","3","1","7","0","44153","2017-09-26 16:02:56","15573"
"A1B6EGCM2DNDPC","caus_thomas_all_3_v1","3LPW2N6LKT3M8S7UHN3DPEAUP3C5UP","0","2","2","9","5","9","0","18717","2017-09-26 16:02:59","15574"
"A1GT1TB5Q5CBWN","caus_thomas_all_3_v1","3FQ5JJ512LPCVL8OR9VXD81IEXEKNX","5","2","2","5","7","5","1","16651","2017-09-26 16:02:59","15575"
" A3QYQSFE594CV6
","caus_thomas_all_3_v1","3FDJT1UU74985W2IN9ZBJR1WNCEK57","1","4","4","3","3","3","0","29411","2017-09-26 16:03:02","15576"
"A34VJCZX2WPJ6E
A34VJCZX2WPJ6E
A34VJCZX2WPJ6E
A34VJCZX2WPJ6E","caus_thomas_all_3_v1","39ZSFO5CA8XUFRMF6P77QOTZ746UJZ","7","3","3","3","9","5","1","9572","2017-09-26 16:03:02","15577"
"A3TW09LQ7VBSLA
","caus_thomas_all_3_v1","3TK8OJTYM1MQEHED6SMWJ6HUUAMVPQ","6","0","0","5","5","7","1","31426","2017-09-26 16:03:03","15578"
"A1637SWTM0JDXR","caus_thomas_all_3_v1","3PM8NZGV8YH3IIKN6K237W4PFHGXQM","2","2","2","5","3","3","1","15159","2017-09-26 16:03:08","15579"
"ACH2DLG512HN3
","caus_thomas_all_3_v1","3SPJ0334214BW06KGQ4WT9ZC3SIYJ2","4","0","0","1","5","7","1","29977","2017-09-26 16:03:09","15580"
"A34VJCZX2WPJ6E
A34VJCZX2WPJ6E
A34VJCZX2WPJ6E
A34VJCZX2WPJ6E","caus_thomas_all_3_v1","39ZSFO5CA8XUFRMF6P77QOTZ746UJZ","8","4","4","9","3","1","0","5886","2017-09-26 16:03:09","15581"
"A21P1T8EW4NHOU","caus_thomas_all_3_v1","379J5II41OHJLLDTJA4F2LKOP5IEL5","1","1","1","1","9","1","0","14145","2017-09-26 16:03:09","15582"
"A2REWST36O8LTU","caus_thomas_all_3_v1","3A4NIXBJ760HX95608SYFTPXY79LM1","4","1","1","7","7","3","1","20048","2017-09-26 16:03:12","15583"
"A1GT1TB5Q5CBWN","caus_thomas_all_3_v1","3FQ5JJ512LPCVL8OR9VXD81IEXEKNX","5","3","3","3","3","1","0","13155","2017-09-26 16:03:13","15584"
"A3TW09LQ7VBSLA
","caus_thomas_all_3_v1","3TK8OJTYM1MQEHED6SMWJ6HUUAMVPQ","6","1","1","7","9","3","1","15028","2017-09-26 16:03:15","15585"
"A21P1T8EW4NHOU","caus_thomas_all_3_v1","379J5II41OHJLLDTJA4F2LKOP5IEL5","1","2","2","7","1","7","1","7068","2017-09-26 16:03:18","15586"
"A1FSPD1LIOXCN1","caus_thomas_all_3_v1","3BQU611VFPL7PNL3M2L35YSIYEL99T","1","1","1","7","7","5","1","22046","2017-09-26 16:03:19","15587"
"A2REWST36O8LTU","caus_thomas_all_3_v1","3A4NIXBJ760HX95608SYFTPXY79LM1","4","2","2","3","3","9","0","6078","2017-09-26 16:03:19","15588"
"A1B6EGCM2DNDPC","caus_thomas_all_3_v1","3LPW2N6LKT3M8S7UHN3DPEAUP3C5UP","0","3","3","5","1","5","1","20848","2017-09-26 16:03:21","15589"
"ACH2DLG512HN3
","caus_thomas_all_3_v1","3SPJ0334214BW06KGQ4WT9ZC3SIYJ2","2","1","1","3","3","9","0","11614","2017-09-26 16:03:21","15590"
"A1GT1TB5Q5CBWN","caus_thomas_all_3_v1","3FQ5JJ512LPCVL8OR9VXD81IEXEKNX","5","4","4","7","1","7","0","8251","2017-09-26 16:03:23","15591"
"A21P1T8EW4NHOU","caus_thomas_all_3_v1","379J5II41OHJLLDTJA4F2LKOP5IEL5","1","3","3","5","3","9","0","3852","2017-09-26 16:03:23","15592"
"A3TW09LQ7VBSLA
","caus_thomas_all_3_v1","3TK8OJTYM1MQEHED6SMWJ6HUUAMVPQ","6","2","2","9","1","1","1","8445","2017-09-26 16:03:24","15593"
"A1637SWTM0JDXR","caus_thomas_all_3_v1","3PM8NZGV8YH3IIKN6K237W4PFHGXQM","2","3","3","7","5","1","0","15295","2017-09-26 16:03:24","15594"
"A2REWST36O8LTU","caus_thomas_all_3_v1","3A4NIXBJ760HX95608SYFTPXY79LM1","4","3","3","5","1","7","1","5053","2017-09-26 16:03:25","15595"
"A21P1T8EW4NHOU","caus_thomas_all_3_v1","379J5II41OHJLLDTJA4F2LKOP5IEL5","1","4","4","9","5","5","1","3747","2017-09-26 16:03:28","15596"
"A3TW09LQ7VBSLA
","caus_thomas_all_3_v1","3TK8OJTYM1MQEHED6SMWJ6HUUAMVPQ","6","3","3","3","7","5","0","3370","2017-09-26 16:03:29","15597"
"ACH2DLG512HN3
","caus_thomas_all_3_v1","3SPJ0334214BW06KGQ4WT9ZC3SIYJ2","5","2","2","5","9","1","1","7132","2017-09-26 16:03:29","15598"
"A2REWST36O8LTU","caus_thomas_all_3_v1","3A4NIXBJ760HX95608SYFTPXY79LM1","4","4","4","1","5","5","1","5062","2017-09-26 16:03:31","15599"
"A1FSPD1LIOXCN1","caus_thomas_all_3_v1","3BQU611VFPL7PNL3M2L35YSIYEL99T","1","2","2","5","3","3","0","11629","2017-09-26 16:03:32","15600"
"AVFUMZ4N2F13B","caus_thomas_all_3_v1","3TVSS0C0E111LY7PDJ0CAI15QM9TW3","4","0","0","9","9","1","0","38531","2017-09-26 16:03:32","15601"
"A3TW09LQ7VBSLA
","caus_thomas_all_3_v1","3TK8OJTYM1MQEHED6SMWJ6HUUAMVPQ","6","4","4","1","3","9","1","3663","2017-09-26 16:03:33","15602"
"ACH2DLG512HN3
","caus_thomas_all_3_v1","3SPJ0334214BW06KGQ4WT9ZC3SIYJ2","4","3","3","9","1","5","1","4109","2017-09-26 16:03:34","15603"
"A1637SWTM0JDXR","caus_thomas_all_3_v1","3PM8NZGV8YH3IIKN6K237W4PFHGXQM","3","4","4","9","9","5","0","10296","2017-09-26 16:03:36","15604"
"A1B6EGCM2DNDPC","caus_thomas_all_3_v1","3LPW2N6LKT3M8S7UHN3DPEAUP3C5UP","0","4","4","3","3","7","0","17360","2017-09-26 16:03:39","15605"
"A1FSPD1LIOXCN1","caus_thomas_all_3_v1","3BQU611VFPL7PNL3M2L35YSIYEL99T","0","3","3","9","9","9","1","6578","2017-09-26 16:03:39","15606"
"ACH2DLG512HN3
","caus_thomas_all_3_v1","3SPJ0334214BW06KGQ4WT9ZC3SIYJ2","3","4","4","7","7","3","1","4255","2017-09-26 16:03:40","15607"
"A1LKDOJ1P1JFH4
","caus_thomas_all_3_v1","3CPLWGV3MO0SEPPXNC48NZN23329NS","7","0","0","1","9","5","0","39469","2017-09-26 16:03:42","15608"
"A1OHE1VD7G5RMN
","caus_thomas_all_3_v1","3GFK2QRXX9IZ0WWZCNIE72VRAJNW5F","6","0","0","5","3","9","0","58260","2017-09-26 16:03:45","15609"
"A1FSPD1LIOXCN1","caus_thomas_all_3_v1","3BQU611VFPL7PNL3M2L35YSIYEL99T","1","4","4","1","5","1","1","7409","2017-09-26 16:03:48","15610"
"A1LKDOJ1P1JFH4
","caus_thomas_all_3_v1","3CPLWGV3MO0SEPPXNC48NZN23329NS","0","1","1","5","3","9","1","17338","2017-09-26 16:04:00","15611"
"A1OHE1VD7G5RMN
","caus_thomas_all_3_v1","3GFK2QRXX9IZ0WWZCNIE72VRAJNW5F","1","1","1","1","1","7","1","15672","2017-09-26 16:04:02","15612"
"AVFUMZ4N2F13B","caus_thomas_all_3_v1","3TVSS0C0E111LY7PDJ0CAI15QM9TW3","4","1","1","1","1","7","1","31715","2017-09-26 16:04:05","15613"
"A1OHE1VD7G5RMN
","caus_thomas_all_3_v1","3GFK2QRXX9IZ0WWZCNIE72VRAJNW5F","5","2","2","9","7","1","0","17169","2017-09-26 16:04:20","15614"
"A1LKDOJ1P1JFH4
","caus_thomas_all_3_v1","3CPLWGV3MO0SEPPXNC48NZN23329NS","0","2","2","9","1","1","0","19146","2017-09-26 16:04:20","15615"
"A1OHE1VD7G5RMN
","caus_thomas_all_3_v1","3GFK2QRXX9IZ0WWZCNIE72VRAJNW5F","7","3","3","7","9","5","0","9454","2017-09-26 16:04:30","15616"
"A2Z8SR1UU09HO5","caus_thomas_all_3_v1","3DY4FPOOA1PBQUUSJKQLO1H9VSARVE","3","0","0","3","5","7","0","46783","2017-09-26 16:04:36","15617"
"A1OHE1VD7G5RMN
","caus_thomas_all_3_v1","3GFK2QRXX9IZ0WWZCNIE72VRAJNW5F","3","4","4","3","5","3","0","6996","2017-09-26 16:04:38","15618"
"A1LKDOJ1P1JFH4
","caus_thomas_all_3_v1","3CPLWGV3MO0SEPPXNC48NZN23329NS","0","3","3","7","5","7","1","19357","2017-09-26 16:04:41","15619"
"AVFUMZ4N2F13B","caus_thomas_all_3_v1","3TVSS0C0E111LY7PDJ0CAI15QM9TW3","4","2","2","5","5","5","1","38713","2017-09-26 16:04:44","15620"
"A3P2CJ0JSJP26L","caus_thomas_all_3_v1","32Q90QCQ1SM81FVBYASENL7905EEK3","6","0","0","5","3","7","0","24940","2017-09-26 16:04:46","15621"
"A1SBH6VKUPSYJZ","caus_thomas_all_3_v1","38SKSKU7R1YV1QFFFTU6N0IGHYPILI","4","0","0","1","9","3","0","71430","2017-09-26 16:04:50","15622"
"A2OVIHW0FX4AJK","caus_thomas_all_3_v1","30IQTZXKAK7FUPFOPM8OSQD72DIX0O","4","0","0","7","3","9","0","42473","2017-09-26 16:04:50","15623"
"A1LKDOJ1P1JFH4
","caus_thomas_all_3_v1","3CPLWGV3MO0SEPPXNC48NZN23329NS","7","4","4","3","7","3","1","10536","2017-09-26 16:04:52","15624"
"A1SBH6VKUPSYJZ","caus_thomas_all_3_v1","38SKSKU7R1YV1QFFFTU6N0IGHYPILI","3","1","1","9","3","9","1","3106","2017-09-26 16:04:54","15625"
"A2Z8SR1UU09HO5","caus_thomas_all_3_v1","3DY4FPOOA1PBQUUSJKQLO1H9VSARVE","3","1","1","1","1","3","0","18002","2017-09-26 16:04:55","15626"
"AVFUMZ4N2F13B","caus_thomas_all_3_v1","3TVSS0C0E111LY7PDJ0CAI15QM9TW3","4","3","3","3","7","3","1","14397","2017-09-26 16:05:00","15627"
"A3P2CJ0JSJP26L","caus_thomas_all_3_v1","32Q90QCQ1SM81FVBYASENL7905EEK3","0","1","1","1","9","9","1","13597","2017-09-26 16:05:01","15628"
"A1XJCPE83VNDVP","caus_thomas_all_3_v1","3A9AA95ATWN9GNZY014JF8NVHMKP5D","2","0","0","3","9","9","0","44228","2017-09-26 16:05:01","15629"
"A2Z8SR1UU09HO5","caus_thomas_all_3_v1","3DY4FPOOA1PBQUUSJKQLO1H9VSARVE","3","2","2","5","7","5","1","8343","2017-09-26 16:05:04","15630"
"A2OVIHW0FX4AJK","caus_thomas_all_3_v1","30IQTZXKAK7FUPFOPM8OSQD72DIX0O","2","1","1","1","1","1","0","17047","2017-09-26 16:05:09","15631"
"AY832D29HUURG
","caus_thomas_all_3_v1","336KAV9KYQTBQ48C95Y4USDV1HX2YK","4","0","0","9","5","3","0","16026","2017-09-26 16:05:10","15632"
"A3P2CJ0JSJP26L","caus_thomas_all_3_v1","32Q90QCQ1SM81FVBYASENL7905EEK3","2","2","2","7","1","1","0","9140","2017-09-26 16:05:11","15633"
"AVFUMZ4N2F13B","caus_thomas_all_3_v1","3TVSS0C0E111LY7PDJ0CAI15QM9TW3","4","4","4","7","3","9","1","13824","2017-09-26 16:05:15","15634"
"AY832D29HUURG
","caus_thomas_all_3_v1","336KAV9KYQTBQ48C95Y4USDV1HX2YK","6","1","1","1","9","5","0","7343","2017-09-26 16:05:19","15635"
"A3P2CJ0JSJP26L","caus_thomas_all_3_v1","32Q90QCQ1SM81FVBYASENL7905EEK3","0","3","3","9","7","5","1","8469","2017-09-26 16:05:20","15636"
"A2Z8SR1UU09HO5","caus_thomas_all_3_v1","3DY4FPOOA1PBQUUSJKQLO1H9VSARVE","3","3","3","7","9","9","0","17345","2017-09-26 16:05:23","15637"
"A2OVIHW0FX4AJK","caus_thomas_all_3_v1","30IQTZXKAK7FUPFOPM8OSQD72DIX0O","2","2","2","5","9","7","1","11191","2017-09-26 16:05:23","15638"
"A2CSV75E3JT58Y","caus_thomas_all_3_v1","3WS1NTTKEYDYU3O3PS22MJD0Y8NF0G","5","0","0","1","5","7","1","5345","2017-09-26 16:05:24","15639"
"A1XJCPE83VNDVP","caus_thomas_all_3_v1","3A9AA95ATWN9GNZY014JF8NVHMKP5D","6","1","1","9","7","7","0","22831","2017-09-26 16:05:25","15640"
"AY832D29HUURG
","caus_thomas_all_3_v1","336KAV9KYQTBQ48C95Y4USDV1HX2YK","6","2","2","3","3","9","1","7592","2017-09-26 16:05:27","15641"
"A2CSV75E3JT58Y","caus_thomas_all_3_v1","3WS1NTTKEYDYU3O3PS22MJD0Y8NF0G","4","1","1","7","3","1","1","2737","2017-09-26 16:05:28","15642"
"A3P2CJ0JSJP26L","caus_thomas_all_3_v1","32Q90QCQ1SM81FVBYASENL7905EEK3","6","4","4","3","5","3","0","7739","2017-09-26 16:05:29","15643"
"A2CSV75E3JT58Y","caus_thomas_all_3_v1","3WS1NTTKEYDYU3O3PS22MJD0Y8NF0G","3","2","2","5","9","3","1","2882","2017-09-26 16:05:32","15644"
"A2Z8SR1UU09HO5","caus_thomas_all_3_v1","3DY4FPOOA1PBQUUSJKQLO1H9VSARVE","3","4","4","9","3","1","1","8443","2017-09-26 16:05:32","15645"
"A2CSV75E3JT58Y","caus_thomas_all_3_v1","3WS1NTTKEYDYU3O3PS22MJD0Y8NF0G","4","3","3","3","7","5","1","2510","2017-09-26 16:05:35","15646"
"AY832D29HUURG
","caus_thomas_all_3_v1","336KAV9KYQTBQ48C95Y4USDV1HX2YK","5","3","3","7","7","1","0","8829","2017-09-26 16:05:37","15647"
"A2CSV75E3JT58Y","caus_thomas_all_3_v1","3WS1NTTKEYDYU3O3PS22MJD0Y8NF0G","5","4","4","9","1","9","1","2077","2017-09-26 16:05:38","15648"
"A2OVIHW0FX4AJK","caus_thomas_all_3_v1","30IQTZXKAK7FUPFOPM8OSQD72DIX0O","2","3","3","3","7","5","1","15404","2017-09-26 16:05:41","15649"
"AY832D29HUURG
","caus_thomas_all_3_v1","336KAV9KYQTBQ48C95Y4USDV1HX2YK","6","4","4","5","1","7","1","3880","2017-09-26 16:05:42","15650"
"ALTSDQ7JAWE7E","caus_thomas_all_3_v1","3WYP994K17SZ85RDW7A7K5U7HMZ6Y5","4","0","0","9","3","3","1","39069","2017-09-26 16:05:45","15651"
"A1OQ52KDFMOJGR","caus_thomas_all_3_v1","30H4UDGLT2J7OUK4S0L5WAYH3HAMP0","4","0","0","7","9","5","0","66446","2017-09-26 16:05:49","15652"
"A1XJCPE83VNDVP","caus_thomas_all_3_v1","3A9AA95ATWN9GNZY014JF8NVHMKP5D","6","2","2","1","3","3","0","24188","2017-09-26 16:05:51","15653"
"A2OVIHW0FX4AJK","caus_thomas_all_3_v1","30IQTZXKAK7FUPFOPM8OSQD72DIX0O","1","4","4","9","5","3","0","10286","2017-09-26 16:05:53","15654"
"A1QA5EWFMNKGTA","caus_thomas_all_3_v1","379J5II41OHJLLDTJA4F2LKOP5JEL6","8","0","0","9","1","9","1","52297","2017-09-26 16:05:55","15655"
"ALTSDQ7JAWE7E","caus_thomas_all_3_v1","3WYP994K17SZ85RDW7A7K5U7HMZ6Y5","3","1","1","7","1","9","1","11484","2017-09-26 16:05:57","15656"
"ALTSDQ7JAWE7E","caus_thomas_all_3_v1","3WYP994K17SZ85RDW7A7K5U7HMZ6Y5","4","2","2","5","5","1","0","5765","2017-09-26 16:06:04","15657"
"A1XJCPE83VNDVP","caus_thomas_all_3_v1","3A9AA95ATWN9GNZY014JF8NVHMKP5D","6","3","3","7","5","5","1","15653","2017-09-26 16:06:07","15658"
"A1OQ52KDFMOJGR","caus_thomas_all_3_v1","30H4UDGLT2J7OUK4S0L5WAYH3HAMP0","6","1","1","9","7","3","1","18515","2017-09-26 16:06:08","15659"
"ALTSDQ7JAWE7E","caus_thomas_all_3_v1","3WYP994K17SZ85RDW7A7K5U7HMZ6Y5","4","3","3","3","7","7","1","9949","2017-09-26 16:06:15","15660"
"ALTSDQ7JAWE7E","caus_thomas_all_3_v1","3WYP994K17SZ85RDW7A7K5U7HMZ6Y5","4","4","4","1","9","5","0","2149","2017-09-26 16:06:18","15661"
"A1QA5EWFMNKGTA","caus_thomas_all_3_v1","379J5II41OHJLLDTJA4F2LKOP5JEL6","6","1","1","1","9","1","0","25322","2017-09-26 16:06:21","15662"
"AOT2BJVBU7JGW","caus_thomas_all_3_v1","3HMIGG0U4L7MCJA1PM754JQYNHOY8I","2","0","0","7","1","9","0","40634","2017-09-26 16:06:22","15663"
"A27MJOV91GA8R3","caus_thomas_all_3_v1","3HVVDCPGTET5A32PSKI0VFML1U8YT6","6","0","0","3","7","9","1","33894","2017-09-26 16:06:27","15664"
"A1XJCPE83VNDVP","caus_thomas_all_3_v1","3A9AA95ATWN9GNZY014JF8NVHMKP5D","4","4","4","5","1","1","1","23914","2017-09-26 16:06:32","15665"
"AOT2BJVBU7JGW","caus_thomas_all_3_v1","3HMIGG0U4L7MCJA1PM754JQYNHOY8I","3","1","1","1","5","1","1","9410","2017-09-26 16:06:32","15666"
"A1QA5EWFMNKGTA","caus_thomas_all_3_v1","379J5II41OHJLLDTJA4F2LKOP5JEL6","8","2","2","3","3","7","0","12062","2017-09-26 16:06:35","15667"
"A1QA5EWFMNKGTA","caus_thomas_all_3_v1","379J5II41OHJLLDTJA4F2LKOP5JEL6","8","3","3","7","7","3","1","6760","2017-09-26 16:06:42","15668"
"A27MJOV91GA8R3","caus_thomas_all_3_v1","3HVVDCPGTET5A32PSKI0VFML1U8YT6","6","1","1","1","9","5","1","14692","2017-09-26 16:06:43","15669"
"AOT2BJVBU7JGW","caus_thomas_all_3_v1","3HMIGG0U4L7MCJA1PM754JQYNHOY8I","2","2","2","3","3","7","0","11837","2017-09-26 16:06:45","15670"
"A2T4DJFHBTILPA","caus_thomas_all_3_v1","3N2BF7Y2VQVFBDMG9ND0N1WQHQ1HMR","1","0","0","1","9","5","1","24033","2017-09-26 16:06:55","15671"
"AOT2BJVBU7JGW","caus_thomas_all_3_v1","3HMIGG0U4L7MCJA1PM754JQYNHOY8I","2","3","3","5","9","3","1","10182","2017-09-26 16:06:56","15672"
"A27MJOV91GA8R3","caus_thomas_all_3_v1","3HVVDCPGTET5A32PSKI0VFML1U8YT6","2","2","2","5","1","3","1","14114","2017-09-26 16:06:58","15673"
"A29VPSFOR6OO5H","caus_thomas_all_3_v1","3DH6GAKTYYQ1WFBOYC7IH3N2MQUZYN","5","0","0","3","5","5","1","53674","2017-09-26 16:07:04","15674"
"AOT2BJVBU7JGW","caus_thomas_all_3_v1","3HMIGG0U4L7MCJA1PM754JQYNHOY8I","1","4","4","9","7","5","0","7212","2017-09-26 16:07:05","15675"
"A1OQ52KDFMOJGR","caus_thomas_all_3_v1","30H4UDGLT2J7OUK4S0L5WAYH3HAMP0","5","2","2","3","5","9","0","55610","2017-09-26 16:07:05","15676"
"A27MJOV91GA8R3","caus_thomas_all_3_v1","3HVVDCPGTET5A32PSKI0VFML1U8YT6","2","3","3","7","3","7","1","9073","2017-09-26 16:07:08","15677"
"A2JWAD9JQNA5ON","caus_thomas_all_3_v1","3L70J4KAZGNXXW8PQO45NPMSVHJDAU","4","0","0","5","5","1","1","18166","2017-09-26 16:07:08","15678"
"A2T4DJFHBTILPA","caus_thomas_all_3_v1","3N2BF7Y2VQVFBDMG9ND0N1WQHQ1HMR","7","1","1","5","1","3","0","14967","2017-09-26 16:07:11","15679"
"A1TB0XEEPXJYP0","caus_thomas_all_3_v1","3OS46CRSLF0I4BW8RWNND6QDZ5XV6L","4","0","0","1","1","5","1","2625","2017-09-26 16:07:14","15680"
"A1QA5EWFMNKGTA","caus_thomas_all_3_v1","379J5II41OHJLLDTJA4F2LKOP5JEL6","8","4","4","5","5","5","0","32535","2017-09-26 16:07:16","15681"
"A1TB0XEEPXJYP0","caus_thomas_all_3_v1","3OS46CRSLF0I4BW8RWNND6QDZ5XV6L","6","1","1","5","7","3","0","2662","2017-09-26 16:07:17","15682"
"A27MJOV91GA8R3","caus_thomas_all_3_v1","3HVVDCPGTET5A32PSKI0VFML1U8YT6","1","4","4","9","5","1","1","9245","2017-09-26 16:07:18","15683"
"A29VPSFOR6OO5H","caus_thomas_all_3_v1","3DH6GAKTYYQ1WFBOYC7IH3N2MQUZYN","5","1","1","9","1","7","1","15112","2017-09-26 16:07:20","15684"
"A1TB0XEEPXJYP0","caus_thomas_all_3_v1","3OS46CRSLF0I4BW8RWNND6QDZ5XV6L","2","2","2","7","5","9","1","2369","2017-09-26 16:07:21","15685"
"A1OQ52KDFMOJGR","caus_thomas_all_3_v1","30H4UDGLT2J7OUK4S0L5WAYH3HAMP0","3","3","3","5","1","1","1","17249","2017-09-26 16:07:23","15686"
"A1TB0XEEPXJYP0","caus_thomas_all_3_v1","3OS46CRSLF0I4BW8RWNND6QDZ5XV6L","7","3","3","3","9","1","0","3436","2017-09-26 16:07:25","15687"
"A2T4DJFHBTILPA","caus_thomas_all_3_v1","3N2BF7Y2VQVFBDMG9ND0N1WQHQ1HMR","7","2","2","7","7","1","0","14811","2017-09-26 16:07:26","15688"
"A29VPSFOR6OO5H","caus_thomas_all_3_v1","3DH6GAKTYYQ1WFBOYC7IH3N2MQUZYN","5","2","2","7","3","1","0","6805","2017-09-26 16:07:28","15689"
"A1TB0XEEPXJYP0","caus_thomas_all_3_v1","3OS46CRSLF0I4BW8RWNND6QDZ5XV6L","0","4","4","9","3","7","1","2814","2017-09-26 16:07:29","15690"
"AK8NUCU4Z1MD8","caus_thomas_all_3_v1","3MYYFCXHJ38L7R2ZJDVMG73PGZ3G4W","0","0","0","9","7","5","1","27562","2017-09-26 16:07:29","15691"
"A2JWAD9JQNA5ON","caus_thomas_all_3_v1","3L70J4KAZGNXXW8PQO45NPMSVHJDAU","8","1","1","1","7","9","1","20742","2017-09-26 16:07:30","15692"
"A29VPSFOR6OO5H","caus_thomas_all_3_v1","3DH6GAKTYYQ1WFBOYC7IH3N2MQUZYN","5","3","3","1","7","3","0","7715","2017-09-26 16:07:36","15693"
"AK8NUCU4Z1MD8","caus_thomas_all_3_v1","3MYYFCXHJ38L7R2ZJDVMG73PGZ3G4W","0","1","1","7","1","3","0","8374","2017-09-26 16:07:38","15694"
"AK8NUCU4Z1MD8","caus_thomas_all_3_v1","3MYYFCXHJ38L7R2ZJDVMG73PGZ3G4W","0","2","2","1","9","9","0","1509","2017-09-26 16:07:41","15695"
"A2T4DJFHBTILPA","caus_thomas_all_3_v1","3N2BF7Y2VQVFBDMG9ND0N1WQHQ1HMR","1","3","3","3","5","9","1","14035","2017-09-26 16:07:42","15696"
"A1990TO0WOKE75","caus_thomas_all_3_v1","3KRVW3HTZNM41M0WKHPZRF3SQ1HSMM","5","0","0","1","1","5","1","48675","2017-09-26 16:07:42","15697"
"A3R93NB2CPSTVQ","caus_thomas_all_3_v1","3KB8R4ZV1E85SQN8YS59OL9VQRKBGX","6","0","0","9","5","1","1","30571","2017-09-26 16:07:43","15698"
"A29VPSFOR6OO5H","caus_thomas_all_3_v1","3DH6GAKTYYQ1WFBOYC7IH3N2MQUZYN","5","4","4","5","9","9","0","6036","2017-09-26 16:07:43","15699"
"A2JWAD9JQNA5ON","caus_thomas_all_3_v1","3L70J4KAZGNXXW8PQO45NPMSVHJDAU","4","2","2","9","9","7","0","13616","2017-09-26 16:07:45","15700"
"AK8NUCU4Z1MD8","caus_thomas_all_3_v1","3MYYFCXHJ38L7R2ZJDVMG73PGZ3G4W","2","3","3","5","3","1","1","4785","2017-09-26 16:07:47","15701"
"A1OQ52KDFMOJGR","caus_thomas_all_3_v1","30H4UDGLT2J7OUK4S0L5WAYH3HAMP0","6","4","4","1","3","7","1","22696","2017-09-26 16:07:47","15702"
"AK8NUCU4Z1MD8","caus_thomas_all_3_v1","3MYYFCXHJ38L7R2ZJDVMG73PGZ3G4W","1","4","4","3","5","7","0","2417","2017-09-26 16:07:50","15703"
"A2T4DJFHBTILPA","caus_thomas_all_3_v1","3N2BF7Y2VQVFBDMG9ND0N1WQHQ1HMR","7","4","4","9","3","7","1","8451","2017-09-26 16:07:51","15704"
"A2JWAD9JQNA5ON","caus_thomas_all_3_v1","3L70J4KAZGNXXW8PQO45NPMSVHJDAU","4","3","3","7","3","3","0","9775","2017-09-26 16:07:55","15705"
"AIV842WA1CLZZ","caus_thomas_all_3_v1","3FIUS151DV31J7VJEEXNPW0S64CGGJ","3","0","0","5","5","3","0","33440","2017-09-26 16:08:00","15706"
"A2JWAD9JQNA5ON","caus_thomas_all_3_v1","3L70J4KAZGNXXW8PQO45NPMSVHJDAU","8","4","4","3","1","5","0","9336","2017-09-26 16:08:06","15707"
"A1990TO0WOKE75","caus_thomas_all_3_v1","3KRVW3HTZNM41M0WKHPZRF3SQ1HSMM","4","1","1","7","9","9","0","24266","2017-09-26 16:08:07","15708"
"A11PYRTATDBEGK","caus_thomas_all_3_v1","3VBEN272MK049C4A9ER4EAJVUF6GS3","6","0","0","7","7","9","1","28224","2017-09-26 16:08:09","15709"
"A3R93NB2CPSTVQ","caus_thomas_all_3_v1","3KB8R4ZV1E85SQN8YS59OL9VQRKBGX","6","1","1","7","1","7","0","28408","2017-09-26 16:08:12","15710"
"AIV842WA1CLZZ","caus_thomas_all_3_v1","3FIUS151DV31J7VJEEXNPW0S64CGGJ","4","1","1","7","7","7","0","15421","2017-09-26 16:08:16","15711"
"A1990TO0WOKE75","caus_thomas_all_3_v1","3KRVW3HTZNM41M0WKHPZRF3SQ1HSMM","3","2","2","3","7","3","0","14146","2017-09-26 16:08:22","15712"
"A11PYRTATDBEGK","caus_thomas_all_3_v1","3VBEN272MK049C4A9ER4EAJVUF6GS3","1","1","1","1","5","1","0","13652","2017-09-26 16:08:24","15713"
"A3E6FOKXJMIPRC
A3E6FOKXJMIPRC","caus_thomas_all_3_v1","3O7L7BFSHEQHVK5NY772A5SW81PIEW","3","0","0","7","5","9","1","47494","2017-09-26 16:08:28","15714"
"A1990TO0WOKE75","caus_thomas_all_3_v1","3KRVW3HTZNM41M0WKHPZRF3SQ1HSMM","1","3","3","5","3","1","0","13043","2017-09-26 16:08:36","15715"
"A11PYRTATDBEGK","caus_thomas_all_3_v1","3VBEN272MK049C4A9ER4EAJVUF6GS3","2","2","2","3","3","5","1","12224","2017-09-26 16:08:37","15716"
"A3R93NB2CPSTVQ","caus_thomas_all_3_v1","3KB8R4ZV1E85SQN8YS59OL9VQRKBGX","7","2","2","5","7","9","0","23673","2017-09-26 16:08:37","15717"
"A30KJRKR8M95SO","caus_thomas_all_3_v1","3EF8EXOTT1WE6UVH41XNFMO2W7AJ1Q","0","0","0","5","3","9","1","40608","2017-09-26 16:08:41","15718"
"A30KJRKR8M95SO","caus_thomas_all_3_v1","3EF8EXOTT1WE6UVH41XNFMO2W7AJ1Q","0","1","1","3","5","7","1","6723","2017-09-26 16:08:48","15719"
"A2312B8ISYXR0Q","caus_thomas_all_3_v1","39K0FND3AHG01QE23H386F9M4VBMAL","5","0","0","9","7","5","1","33650","2017-09-26 16:08:49","15720"
"A11PYRTATDBEGK","caus_thomas_all_3_v1","3VBEN272MK049C4A9ER4EAJVUF6GS3","7","3","3","9","9","3","1","14758","2017-09-26 16:08:53","15721"
"A3E6FOKXJMIPRC
A3E6FOKXJMIPRC","caus_thomas_all_3_v1","3O7L7BFSHEQHVK5NY772A5SW81PIEW","2","1","1","9","9","5","0","23397","2017-09-26 16:08:53","15722"
"A1MGP6RT6R6HS7","caus_thomas_all_3_v1","3QJOXOW4XJS3R3VEJM5U2YZDPA9MEG","5","0","0","7","1","3","0","24172","2017-09-26 16:08:54","15723"
"A1990TO0WOKE75","caus_thomas_all_3_v1","3KRVW3HTZNM41M0WKHPZRF3SQ1HSMM","7","4","4","9","5","7","1","21472","2017-09-26 16:08:59","15724"
"A3E6FOKXJMIPRC
A3E6FOKXJMIPRC","caus_thomas_all_3_v1","3O7L7BFSHEQHVK5NY772A5SW81PIEW","2","2","2","5","7","3","1","6846","2017-09-26 16:09:00","15725"
"A2312B8ISYXR0Q","caus_thomas_all_3_v1","39K0FND3AHG01QE23H386F9M4VBMAL","6","1","1","5","3","3","0","18601","2017-09-26 16:09:09","15726"
"AIV842WA1CLZZ","caus_thomas_all_3_v1","3FIUS151DV31J7VJEEXNPW0S64CGGJ","3","2","2","9","3","9","1","51671","2017-09-26 16:09:09","15727"
"A11PYRTATDBEGK","caus_thomas_all_3_v1","3VBEN272MK049C4A9ER4EAJVUF6GS3","4","4","4","5","1","7","1","16938","2017-09-26 16:09:10","15728"
"A3R93NB2CPSTVQ","caus_thomas_all_3_v1","3KB8R4ZV1E85SQN8YS59OL9VQRKBGX","7","3","3","1","9","5","0","34424","2017-09-26 16:09:13","15729"
"A1MGP6RT6R6HS7","caus_thomas_all_3_v1","3QJOXOW4XJS3R3VEJM5U2YZDPA9MEG","8","1","1","1","9","9","0","17992","2017-09-26 16:09:13","15730"
"AUSDM3KALROGI","caus_thomas_all_3_v1","3VP0C6EFSGXZEO2ZD4MWQA708CLM6V","2","0","0","9","9","1","1","27192","2017-09-26 16:09:15","15731"
"A30KJRKR8M95SO","caus_thomas_all_3_v1","3EF8EXOTT1WE6UVH41XNFMO2W7AJ1Q","0","2","2","7","7","1","0","26415","2017-09-26 16:09:16","15732"
"AIV842WA1CLZZ","caus_thomas_all_3_v1","3FIUS151DV31J7VJEEXNPW0S64CGGJ","6","3","3","1","1","5","0","10182","2017-09-26 16:09:20","15733"
"A3E6FOKXJMIPRC
A3E6FOKXJMIPRC","caus_thomas_all_3_v1","3O7L7BFSHEQHVK5NY772A5SW81PIEW","2","3","3","3","3","1","1","19193","2017-09-26 16:09:21","15734"
"A2312B8ISYXR0Q","caus_thomas_all_3_v1","39K0FND3AHG01QE23H386F9M4VBMAL","5","2","2","1","1","1","0","12598","2017-09-26 16:09:22","15735"
"AUSDM3KALROGI","caus_thomas_all_3_v1","3VP0C6EFSGXZEO2ZD4MWQA708CLM6V","2","1","1","1","1","9","1","7062","2017-09-26 16:09:23","15736"
"A30KJRKR8M95SO","caus_thomas_all_3_v1","3EF8EXOTT1WE6UVH41XNFMO2W7AJ1Q","0","3","3","1","1","5","1","8171","2017-09-26 16:09:25","15737"
"A1MGP6RT6R6HS7","caus_thomas_all_3_v1","3QJOXOW4XJS3R3VEJM5U2YZDPA9MEG","7","2","2","9","5","7","1","11929","2017-09-26 16:09:26","15738"
"A3E6FOKXJMIPRC
A3E6FOKXJMIPRC","caus_thomas_all_3_v1","3O7L7BFSHEQHVK5NY772A5SW81PIEW","2","4","4","1","1","7","0","4851","2017-09-26 16:09:27","15739"
"A30KJRKR8M95SO","caus_thomas_all_3_v1","3EF8EXOTT1WE6UVH41XNFMO2W7AJ1Q","0","4","4","9","9","3","0","4462","2017-09-26 16:09:30","15740"
"AUSDM3KALROGI","caus_thomas_all_3_v1","3VP0C6EFSGXZEO2ZD4MWQA708CLM6V","1","2","2","3","5","5","1","7906","2017-09-26 16:09:32","15741"
"A2312B8ISYXR0Q","caus_thomas_all_3_v1","39K0FND3AHG01QE23H386F9M4VBMAL","5","3","3","7","9","9","0","10985","2017-09-26 16:09:34","15742"
"A3R93NB2CPSTVQ","caus_thomas_all_3_v1","3KB8R4ZV1E85SQN8YS59OL9VQRKBGX","6","4","4","3","3","3","0","22420","2017-09-26 16:09:36","15743"
"AUSDM3KALROGI","caus_thomas_all_3_v1","3VP0C6EFSGXZEO2ZD4MWQA708CLM6V","1","3","3","5","3","7","0","7473","2017-09-26 16:09:40","15744"
"AIV842WA1CLZZ","caus_thomas_all_3_v1","3FIUS151DV31J7VJEEXNPW0S64CGGJ","3","4","4","3","9","1","0","19732","2017-09-26 16:09:41","15745"
"A1MGP6RT6R6HS7","caus_thomas_all_3_v1","3QJOXOW4XJS3R3VEJM5U2YZDPA9MEG","1","3","3","3","7","1","0","14861","2017-09-26 16:09:42","15746"
"AUSDM3KALROGI","caus_thomas_all_3_v1","3VP0C6EFSGXZEO2ZD4MWQA708CLM6V","2","4","4","7","7","3","1","4321","2017-09-26 16:09:46","15747"
"A2312B8ISYXR0Q","caus_thomas_all_3_v1","39K0FND3AHG01QE23H386F9M4VBMAL","5","4","4","3","5","7","0","11903","2017-09-26 16:09:47","15748"
"A1MGP6RT6R6HS7","caus_thomas_all_3_v1","3QJOXOW4XJS3R3VEJM5U2YZDPA9MEG","4","4","4","5","3","5","1","8485","2017-09-26 16:09:51","15749"
"A1XE34N6DV5TAS","caus_thomas_all_3_v1","3KJYX6QCM9CUS6BFBFHCMAVILBHJVF","8","0","0","7","9","1","0","35444","2017-09-26 16:10:28","15750"
"A1XE34N6DV5TAS","caus_thomas_all_3_v1","3KJYX6QCM9CUS6BFBFHCMAVILBHJVF","8","1","1","3","1","7","0","6500","2017-09-26 16:10:36","15751"
"A1XE34N6DV5TAS","caus_thomas_all_3_v1","3KJYX6QCM9CUS6BFBFHCMAVILBHJVF","8","2","2","9","7","3","0","4331","2017-09-26 16:10:41","15752"
"A1UUNYHX3M8O3O","caus_thomas_all_3_v1","3TXWC2NHNZRPU2H2V8LUMTX8Q2AS9N","6","0","0","7","5","1","0","7592","2017-09-26 16:10:44","15753"
"A1XE34N6DV5TAS","caus_thomas_all_3_v1","3KJYX6QCM9CUS6BFBFHCMAVILBHJVF","8","3","3","1","3","9","1","5804","2017-09-26 16:10:48","15754"
"A3U59UC1EHE1VC","caus_thomas_all_3_v1","3CCZ6YKWR7KOO0JRJC8MTINGCI4954","4","0","0","7","5","3","0","31980","2017-09-26 16:10:49","15755"
"A1UUNYHX3M8O3O","caus_thomas_all_3_v1","3TXWC2NHNZRPU2H2V8LUMTX8Q2AS9N","5","1","1","3","3","5","1","6629","2017-09-26 16:10:51","15756"
"A1XE34N6DV5TAS","caus_thomas_all_3_v1","3KJYX6QCM9CUS6BFBFHCMAVILBHJVF","8","4","4","5","5","5","1","2672","2017-09-26 16:10:52","15757"
"A9QYJIAD34PNR","caus_thomas_all_3_v1","3CFVK00FWLMF86KEDSLHQXSB87W6LE","4","0","0","7","1","9","0","66389","2017-09-26 16:10:52","15758"
"A1UUNYHX3M8O3O","caus_thomas_all_3_v1","3TXWC2NHNZRPU2H2V8LUMTX8Q2AS9N","7","2","2","5","1","3","1","3595","2017-09-26 16:10:56","15759"
"A1UUNYHX3M8O3O","caus_thomas_all_3_v1","3TXWC2NHNZRPU2H2V8LUMTX8Q2AS9N","1","3","3","1","9","9","1","2928","2017-09-26 16:11:00","15760"
"A3U59UC1EHE1VC","caus_thomas_all_3_v1","3CCZ6YKWR7KOO0JRJC8MTINGCI4954","1","1","1","1","1","9","0","11383","2017-09-26 16:11:01","15761"
"A1UUNYHX3M8O3O","caus_thomas_all_3_v1","3TXWC2NHNZRPU2H2V8LUMTX8Q2AS9N","4","4","4","9","7","7","1","2269","2017-09-26 16:11:03","15762"
"A3U59UC1EHE1VC","caus_thomas_all_3_v1","3CCZ6YKWR7KOO0JRJC8MTINGCI4954","2","2","2","5","3","5","1","12971","2017-09-26 16:11:15","15763"
"A3U59UC1EHE1VC","caus_thomas_all_3_v1","3CCZ6YKWR7KOO0JRJC8MTINGCI4954","3","3","3","3","7","1","0","11970","2017-09-26 16:11:28","15764"
"A1AWHGAQBO77DG","caus_thomas_all_3_v1","3QY5DC2MXRLEAP0JNZGMBQ17EXPUFW","5","0","0","3","1","7","1","21734","2017-09-26 16:11:31","15765"
"A3U59UC1EHE1VC","caus_thomas_all_3_v1","3CCZ6YKWR7KOO0JRJC8MTINGCI4954","7","4","4","9","9","7","1","12661","2017-09-26 16:11:42","15766"
"A1AWHGAQBO77DG","caus_thomas_all_3_v1","3QY5DC2MXRLEAP0JNZGMBQ17EXPUFW","7","1","1","7","5","9","0","9744","2017-09-26 16:11:42","15767"
"A1AWHGAQBO77DG","caus_thomas_all_3_v1","3QY5DC2MXRLEAP0JNZGMBQ17EXPUFW","2","2","2","9","7","1","0","8620","2017-09-26 16:11:52","15768"
"A3V2LUYXBLBAPS","caus_thomas_all_3_v1","3K3R2QNK8B459F96KDGU1UFWBZUU94","5","0","0","7","3","5","0","47868","2017-09-26 16:11:57","15769"
"A1AWHGAQBO77DG","caus_thomas_all_3_v1","3QY5DC2MXRLEAP0JNZGMBQ17EXPUFW","4","3","3","5","3","3","1","6029","2017-09-26 16:11:59","15770"
"A9QYJIAD34PNR","caus_thomas_all_3_v1","3CFVK00FWLMF86KEDSLHQXSB87W6LE","6","1","1","1","5","1","1","69221","2017-09-26 16:12:02","15771"
"A1AWHGAQBO77DG","caus_thomas_all_3_v1","3QY5DC2MXRLEAP0JNZGMBQ17EXPUFW","8","4","4","1","9","5","1","5348","2017-09-26 16:12:05","15772"
"A3V2LUYXBLBAPS","caus_thomas_all_3_v1","3K3R2QNK8B459F96KDGU1UFWBZUU94","1","1","1","1","5","3","0","12011","2017-09-26 16:12:10","15773"
"A3V2LUYXBLBAPS","caus_thomas_all_3_v1","3K3R2QNK8B459F96KDGU1UFWBZUU94","2","2","2","3","7","7","0","10644","2017-09-26 16:12:22","15774"
"A14EWMT2R4UEU6
","caus_thomas_all_3_v1","3PH3VY7DJLYX7AGOJBPUW62MBIWWZN","1","0","0","1","7","7","1","58284","2017-09-26 16:12:31","15775"
"A1WMOYIMJMIV9P","caus_thomas_all_3_v1","3OF2M9AATGP6CAM7UX6R8V8ROBNKZF","8","0","0","1","9","9","1","24124","2017-09-26 16:12:35","15776"
"A3V2LUYXBLBAPS","caus_thomas_all_3_v1","3K3R2QNK8B459F96KDGU1UFWBZUU94","6","3","3","9","9","1","0","19603","2017-09-26 16:12:42","15777"
"A14EWMT2R4UEU6
","caus_thomas_all_3_v1","3PH3VY7DJLYX7AGOJBPUW62MBIWWZN","4","1","1","7","3","9","1","12153","2017-09-26 16:12:44","15778"
"A1WMOYIMJMIV9P","caus_thomas_all_3_v1","3OF2M9AATGP6CAM7UX6R8V8ROBNKZF","2","1","1","9","1","7","0","12059","2017-09-26 16:12:48","15779"
"A8R5U6Z3P7AHG","caus_thomas_all_3_v1","3CP1TO84PT2DOGYSY3T7JVF26CU255","8","0","0","3","9","3","0","43965","2017-09-26 16:12:52","15780"
"A14EWMT2R4UEU6
","caus_thomas_all_3_v1","3PH3VY7DJLYX7AGOJBPUW62MBIWWZN","4","2","2","5","1","3","0","7268","2017-09-26 16:12:52","15781"
"A1WMOYIMJMIV9P","caus_thomas_all_3_v1","3OF2M9AATGP6CAM7UX6R8V8ROBNKZF","5","2","2","5","5","5","1","6381","2017-09-26 16:12:56","15782"
"A3V2LUYXBLBAPS","caus_thomas_all_3_v1","3K3R2QNK8B459F96KDGU1UFWBZUU94","3","4","4","5","1","9","0","13859","2017-09-26 16:12:57","15783"
"A1TOER30AQUY2F
","caus_thomas_all_3_v1","3QBD8R3Z21K9Z4JX7W8ULGCR7LV4O8","0","0","0","7","9","9","1","38871","2017-09-26 16:13:01","15784"
"A14EWMT2R4UEU6
","caus_thomas_all_3_v1","3PH3VY7DJLYX7AGOJBPUW62MBIWWZN","1","3","3","3","9","1","0","9188","2017-09-26 16:13:02","15785"
"A9QYJIAD34PNR","caus_thomas_all_3_v1","3CFVK00FWLMF86KEDSLHQXSB87W6LE","6","2","2","3","9","5","0","59410","2017-09-26 16:13:03","15786"
"A1WMOYIMJMIV9P","caus_thomas_all_3_v1","3OF2M9AATGP6CAM7UX6R8V8ROBNKZF","1","3","3","7","3","3","0","6781","2017-09-26 16:13:04","15787"
"A8R5U6Z3P7AHG","caus_thomas_all_3_v1","3CP1TO84PT2DOGYSY3T7JVF26CU255","8","1","1","9","3","9","0","16435","2017-09-26 16:13:09","15788"
"A14EWMT2R4UEU6
","caus_thomas_all_3_v1","3PH3VY7DJLYX7AGOJBPUW62MBIWWZN","7","4","4","9","5","5","1","6623","2017-09-26 16:13:10","15789"
"A1WMOYIMJMIV9P","caus_thomas_all_3_v1","3OF2M9AATGP6CAM7UX6R8V8ROBNKZF","7","4","4","3","7","1","1","6299","2017-09-26 16:13:11","15790"
"A1TOER30AQUY2F
","caus_thomas_all_3_v1","3QBD8R3Z21K9Z4JX7W8ULGCR7LV4O8","0","1","1","3","3","5","0","11187","2017-09-26 16:13:13","15791"
"A34CBV74LOV6E3","caus_thomas_all_3_v1","3C5W7UE9CFRCX3MVERVMQNKK5GKXM0","5","0","0","3","7","1","1","54949","2017-09-26 16:13:20","15792"
"A8R5U6Z3P7AHG","caus_thomas_all_3_v1","3CP1TO84PT2DOGYSY3T7JVF26CU255","8","2","2","7","7","7","0","10465","2017-09-26 16:13:21","15793"
"A2XY43VECPAD61","caus_thomas_all_3_v1","3IXEICO792K3RJSJM1N8CO2S2KI6TH","4","0","0","1","3","5","0","164480","2017-09-26 16:13:24","15794"
"A1TOER30AQUY2F
","caus_thomas_all_3_v1","3QBD8R3Z21K9Z4JX7W8ULGCR7LV4O8","5","2","2","5","5","3","0","10343","2017-09-26 16:13:25","15795"
"AXRHEJ3POWHEQ","caus_thomas_all_3_v1","354P56DE9K4LGJT9GBNA8X62VCO7SS","4","0","0","3","1","9","0","64830","2017-09-26 16:13:32","15796"
"A9QYJIAD34PNR","caus_thomas_all_3_v1","3CFVK00FWLMF86KEDSLHQXSB87W6LE","6","3","3","5","3","3","1","30723","2017-09-26 16:13:34","15797"
"A1TOER30AQUY2F
","caus_thomas_all_3_v1","3QBD8R3Z21K9Z4JX7W8ULGCR7LV4O8","2","3","3","1","7","1","1","9719","2017-09-26 16:13:35","15798"
"A34CBV74LOV6E3","caus_thomas_all_3_v1","3C5W7UE9CFRCX3MVERVMQNKK5GKXM0","4","1","1","9","3","7","1","20059","2017-09-26 16:13:41","15799"
"A2XY43VECPAD61","caus_thomas_all_3_v1","3IXEICO792K3RJSJM1N8CO2S2KI6TH","2","1","1","9","7","1","0","23954","2017-09-26 16:13:49","15800"
"A8R5U6Z3P7AHG","caus_thomas_all_3_v1","3CP1TO84PT2DOGYSY3T7JVF26CU255","7","3","3","1","5","5","1","28670","2017-09-26 16:13:50","15801"
"AXRHEJ3POWHEQ","caus_thomas_all_3_v1","354P56DE9K4LGJT9GBNA8X62VCO7SS","4","1","1","7","5","1","1","18351","2017-09-26 16:13:51","15802"
"A9QYJIAD34PNR","caus_thomas_all_3_v1","3CFVK00FWLMF86KEDSLHQXSB87W6LE","6","4","4","9","7","7","0","22069","2017-09-26 16:13:58","15803"
"A34CBV74LOV6E3","caus_thomas_all_3_v1","3C5W7UE9CFRCX3MVERVMQNKK5GKXM0","3","2","2","5","1","3","1","19484","2017-09-26 16:14:02","15804"
"A8R5U6Z3P7AHG","caus_thomas_all_3_v1","3CP1TO84PT2DOGYSY3T7JVF26CU255","3","4","4","5","1","1","1","14332","2017-09-26 16:14:06","15805"
"A1L04TXTIC3U9X","caus_thomas_all_3_v1","3LOTDFNYA70R2TPOIZVNTEM4ZD3FWJ","4","0","0","7","3","7","1","48566","2017-09-26 16:14:09","15806"
"AXRHEJ3POWHEQ","caus_thomas_all_3_v1","354P56DE9K4LGJT9GBNA8X62VCO7SS","4","2","2","9","7","3","1","17950","2017-09-26 16:14:10","15807"
"A2XY43VECPAD61","caus_thomas_all_3_v1","3IXEICO792K3RJSJM1N8CO2S2KI6TH","4","2","2","3","5","7","1","20586","2017-09-26 16:14:11","15808"
"A1L04TXTIC3U9X","caus_thomas_all_3_v1","3LOTDFNYA70R2TPOIZVNTEM4ZD3FWJ","4","1","1","1","9","3","0","5382","2017-09-26 16:14:16","15809"
"A3OC3VQF3CZ5T0
","caus_thomas_all_3_v1","3EQHHY4HQST33A6ZXIEWLZ93GVZG52","3","0","0","5","5","3","0","39066","2017-09-26 16:14:20","15810"
"A2XY43VECPAD61","caus_thomas_all_3_v1","3IXEICO792K3RJSJM1N8CO2S2KI6TH","2","3","3","5","1","9","0","10512","2017-09-26 16:14:22","15811"
"AYGLXNKP3KBV8","caus_thomas_all_3_v1","3KIBXJ1WD5VUD680SOVASX1N47LKOE","8","0","0","3","1","9","1","35351","2017-09-26 16:14:24","15812"
"A32FIOOQE8U98U","caus_thomas_all_3_v1","3MH9DQ757WDKOPWEYJM4TB1JFCRUGX","1","0","0","9","9","1","0","43729","2017-09-26 16:14:30","15813"
"A1L04TXTIC3U9X","caus_thomas_all_3_v1","3LOTDFNYA70R2TPOIZVNTEM4ZD3FWJ","4","2","2","3","5","1","1","13189","2017-09-26 16:14:30","15814"
"AXRHEJ3POWHEQ","caus_thomas_all_3_v1","354P56DE9K4LGJT9GBNA8X62VCO7SS","5","3","3","1","9","5","1","20201","2017-09-26 16:14:32","15815"
"A34CBV74LOV6E3","caus_thomas_all_3_v1","3C5W7UE9CFRCX3MVERVMQNKK5GKXM0","4","3","3","7","9","9","0","30782","2017-09-26 16:14:33","15816"
"A2XY43VECPAD61","caus_thomas_all_3_v1","3IXEICO792K3RJSJM1N8CO2S2KI6TH","3","4","4","7","9","3","0","10778","2017-09-26 16:14:34","15817"
"A3OC3VQF3CZ5T0
","caus_thomas_all_3_v1","3EQHHY4HQST33A6ZXIEWLZ93GVZG52","3","1","1","9","7","7","1","14849","2017-09-26 16:14:36","15818"
"A3OC3VQF3CZ5T0
","caus_thomas_all_3_v1","3EQHHY4HQST33A6ZXIEWLZ93GVZG52","2","2","2","7","3","1","1","2552","2017-09-26 16:14:39","15819"
"AYGLXNKP3KBV8","caus_thomas_all_3_v1","3KIBXJ1WD5VUD680SOVASX1N47LKOE","8","1","1","5","3","1","1","14741","2017-09-26 16:14:40","15820"
"A3OC3VQF3CZ5T0
","caus_thomas_all_3_v1","3EQHHY4HQST33A6ZXIEWLZ93GVZG52","4","3","3","1","9","5","1","4031","2017-09-26 16:14:44","15821"
"A1L04TXTIC3U9X","caus_thomas_all_3_v1","3LOTDFNYA70R2TPOIZVNTEM4ZD3FWJ","1","3","3","5","1","9","1","14019","2017-09-26 16:14:45","15822"
"A29AX5O8KL48F8","caus_thomas_all_3_v1","36TFCYNS44BQ5PLKNUF9YICOOUMHXC","5","0","0","3","9","7","1","39409","2017-09-26 16:14:46","15823"
"A3OC3VQF3CZ5T0
","caus_thomas_all_3_v1","3EQHHY4HQST33A6ZXIEWLZ93GVZG52","3","4","4","3","1","9","1","3310","2017-09-26 16:14:49","15824"
"A23N7M4VTXM99F","caus_thomas_all_3_v1","3JV9LGBJWTFPBKCH2XAVU59UXQ4GO7","7","0","0","9","7","5","0","32087","2017-09-26 16:14:51","15825"
"AYGLXNKP3KBV8","caus_thomas_all_3_v1","3KIBXJ1WD5VUD680SOVASX1N47LKOE","8","2","2","1","9","5","1","11789","2017-09-26 16:14:53","15826"
"AXRHEJ3POWHEQ","caus_thomas_all_3_v1","354P56DE9K4LGJT9GBNA8X62VCO7SS","3","4","4","5","3","7","1","20420","2017-09-26 16:14:53","15827"
"A34CBV74LOV6E3","caus_thomas_all_3_v1","3C5W7UE9CFRCX3MVERVMQNKK5GKXM0","6","4","4","1","5","5","0","19844","2017-09-26 16:14:54","15828"
"A1L04TXTIC3U9X","caus_thomas_all_3_v1","3LOTDFNYA70R2TPOIZVNTEM4ZD3FWJ","4","4","4","9","7","5","0","8415","2017-09-26 16:14:55","15829"
"A32FIOOQE8U98U","caus_thomas_all_3_v1","3MH9DQ757WDKOPWEYJM4TB1JFCRUGX","2","1","1","3","1","9","1","26148","2017-09-26 16:14:57","15830"
"A5C5BKWMDKX6H","caus_thomas_all_3_v1","3V5Q80FXIXSAA1BOKK5E4YHISG332G","0","0","0","9","9","7","0","55879","2017-09-26 16:14:57","15831"
"AYGLXNKP3KBV8","caus_thomas_all_3_v1","3KIBXJ1WD5VUD680SOVASX1N47LKOE","8","3","3","9","5","3","1","7092","2017-09-26 16:15:01","15832"
"A23N7M4VTXM99F","caus_thomas_all_3_v1","3JV9LGBJWTFPBKCH2XAVU59UXQ4GO7","7","1","1","3","9","9","1","10255","2017-09-26 16:15:02","15833"
"A29AX5O8KL48F8","caus_thomas_all_3_v1","36TFCYNS44BQ5PLKNUF9YICOOUMHXC","3","1","1","7","7","9","0","18906","2017-09-26 16:15:06","15834"
"A32FIOOQE8U98U","caus_thomas_all_3_v1","3MH9DQ757WDKOPWEYJM4TB1JFCRUGX","5","2","2","7","3","3","0","10304","2017-09-26 16:15:08","15835"
"A23N7M4VTXM99F","caus_thomas_all_3_v1","3JV9LGBJWTFPBKCH2XAVU59UXQ4GO7","7","2","2","7","1","3","0","6523","2017-09-26 16:15:10","15836"
"AYGLXNKP3KBV8","caus_thomas_all_3_v1","3KIBXJ1WD5VUD680SOVASX1N47LKOE","8","4","4","7","7","7","1","12789","2017-09-26 16:15:14","15837"
"A5C5BKWMDKX6H","caus_thomas_all_3_v1","3V5Q80FXIXSAA1BOKK5E4YHISG332G","0","1","1","7","5","9","1","20217","2017-09-26 16:15:18","15838"
"A29AX5O8KL48F8","caus_thomas_all_3_v1","36TFCYNS44BQ5PLKNUF9YICOOUMHXC","7","2","2","1","5","3","0","14437","2017-09-26 16:15:21","15839"
"A23N7M4VTXM99F","caus_thomas_all_3_v1","3JV9LGBJWTFPBKCH2XAVU59UXQ4GO7","1","3","3","5","3","1","0","11139","2017-09-26 16:15:21","15840"
"A32FIOOQE8U98U","caus_thomas_all_3_v1","3MH9DQ757WDKOPWEYJM4TB1JFCRUGX","8","3","3","1","7","7","1","18282","2017-09-26 16:15:28","15841"
"A5C5BKWMDKX6H","caus_thomas_all_3_v1","3V5Q80FXIXSAA1BOKK5E4YHISG332G","0","2","2","1","3","1","1","8776","2017-09-26 16:15:28","15842"
"A29AX5O8KL48F8","caus_thomas_all_3_v1","36TFCYNS44BQ5PLKNUF9YICOOUMHXC","1","3","3","9","3","5","1","11652","2017-09-26 16:15:34","15843"
"A23N7M4VTXM99F","caus_thomas_all_3_v1","3JV9LGBJWTFPBKCH2XAVU59UXQ4GO7","2","4","4","1","5","7","1","12375","2017-09-26 16:15:35","15844"
"A32FIOOQE8U98U","caus_thomas_all_3_v1","3MH9DQ757WDKOPWEYJM4TB1JFCRUGX","4","4","4","5","5","5","0","8864","2017-09-26 16:15:37","15845"
"A5C5BKWMDKX6H","caus_thomas_all_3_v1","3V5Q80FXIXSAA1BOKK5E4YHISG332G","0","3","3","3","1","3","1","11368","2017-09-26 16:15:41","15846"
"A29AX5O8KL48F8","caus_thomas_all_3_v1","36TFCYNS44BQ5PLKNUF9YICOOUMHXC","0","4","4","5","1","1","1","10437","2017-09-26 16:15:45","15847"
"A5C5BKWMDKX6H","caus_thomas_all_3_v1","3V5Q80FXIXSAA1BOKK5E4YHISG332G","0","4","4","5","7","5","1","6534","2017-09-26 16:15:48","15848"
"A2O7HI43T5VIYT","caus_thomas_all_3_v1","3Z3ZLGNNSIVR2KD9MVVF0GFL8MHQ3H","7","0","0","1","1","5","1","39963","2017-09-26 16:16:02","15849"
"A2KA1H6AA3Y80G","caus_thomas_all_3_v1","3AMW0RGHOD3D6C5441059PNH87MNP3","0","0","0","3","9","9","1","23243","2017-09-26 16:16:03","15850"
"A8TFVGAEEN2EC","caus_thomas_all_3_v1","3X1FV8S5JXSK14LE39W9PX32TJZVGM","8","0","0","1","9","9","0","43133","2017-09-26 16:16:06","15851"
"AWOVZKC753AG6","caus_thomas_all_3_v1","3HFNH7HEMHFSWWPXHA2ZJA4UCRMGQF","1","0","0","1","7","1","0","74869","2017-09-26 16:16:10","15852"
"A13JDX06ZXN4KJ","caus_thomas_all_3_v1","3D8YOU6S9ELIRW78M6DIHKOULYN6U6","0","0","0","9","1","5","0","29920","2017-09-26 16:16:13","15853"
"AXDLEGI6OD6V","caus_thomas_all_3_v1","3IQ1VMJRYTLLU6V8E8Z31T324W5A9B","4","0","0","3","7","1","0","33086","2017-09-26 16:16:13","15854"
"A2O7HI43T5VIYT","caus_thomas_all_3_v1","3Z3ZLGNNSIVR2KD9MVVF0GFL8MHQ3H","1","1","1","5","3","3","1","10728","2017-09-26 16:16:13","15855"
"A2KA1H6AA3Y80G","caus_thomas_all_3_v1","3AMW0RGHOD3D6C5441059PNH87MNP3","0","1","1","1","3","7","1","13196","2017-09-26 16:16:17","15856"
"A8TFVGAEEN2EC","caus_thomas_all_3_v1","3X1FV8S5JXSK14LE39W9PX32TJZVGM","6","1","1","3","3","3","1","10628","2017-09-26 16:16:17","15857"
"AWF9NK7QCH0R1","caus_thomas_all_3_v1","3HFNH7HEMHFSWWPXHA2ZJA4UCRMQGP","6","0","0","1","5","3","1","43017","2017-09-26 16:16:21","15858"
"AVMIXXCHPD291","caus_thomas_all_3_v1","392CY0QWG1SZ3I8U91VP1JG5VCU4IB","5","0","0","3","1","1","1","455399","2017-09-26 16:16:22","15859"
"A8TFVGAEEN2EC","caus_thomas_all_3_v1","3X1FV8S5JXSK14LE39W9PX32TJZVGM","8","2","2","5","5","7","1","6376","2017-09-26 16:16:25","15860"
"A3D0P1ROK7IBCL","caus_thomas_all_3_v1","3Z3ZLGNNSIVR2KD9MVVF0GFL8MI3QV","8","0","0","9","9","9","1","34276","2017-09-26 16:16:30","15861"
"AXDLEGI6OD6V","caus_thomas_all_3_v1","3IQ1VMJRYTLLU6V8E8Z31T324W5A9B","4","1","1","5","1","3","1","16163","2017-09-26 16:16:30","15862"
"A3UVZZSK15KNPK","caus_thomas_all_3_v1","38YMOXR4MU0VJ0WDH6SJZ89R6E0W6X","4","0","0","7","7","5","0","24282","2017-09-26 16:16:31","15863"
"A2KA1H6AA3Y80G","caus_thomas_all_3_v1","3AMW0RGHOD3D6C5441059PNH87MNP3","8","2","2","7","5","5","0","16579","2017-09-26 16:16:35","15864"
"AXDLEGI6OD6V","caus_thomas_all_3_v1","3IQ1VMJRYTLLU6V8E8Z31T324W5A9B","4","2","2","7","3","9","0","5733","2017-09-26 16:16:37","15865"
"A8TFVGAEEN2EC","caus_thomas_all_3_v1","3X1FV8S5JXSK14LE39W9PX32TJZVGM","4","3","3","9","7","1","0","12984","2017-09-26 16:16:39","15866"
"AVMIXXCHPD291","caus_thomas_all_3_v1","392CY0QWG1SZ3I8U91VP1JG5VCU4IB","4","1","1","1","7","5","0","16106","2017-09-26 16:16:39","15867"
"A2O7HI43T5VIYT","caus_thomas_all_3_v1","3Z3ZLGNNSIVR2KD9MVVF0GFL8MHQ3H","7","2","2","3","7","9","0","24657","2017-09-26 16:16:39","15868"
"AWOVZKC753AG6","caus_thomas_all_3_v1","3HFNH7HEMHFSWWPXHA2ZJA4UCRMGQF","8","1","1","3","3","7","1","28031","2017-09-26 16:16:40","15869"
"AZWCD7OSWKVVF","caus_thomas_all_3_v1","3SPJ0334214BW06KGQ4WT9ZC3SKYJ4","3","0","0","9","5","1","0","30437","2017-09-26 16:16:42","15870"
"A2KA1H6AA3Y80G","caus_thomas_all_3_v1","3AMW0RGHOD3D6C5441059PNH87MNP3","1","3","3","5","7","3","1","7881","2017-09-26 16:16:43","15871"
"AWF9NK7QCH0R1","caus_thomas_all_3_v1","3HFNH7HEMHFSWWPXHA2ZJA4UCRMQGP","6","1","1","5","3","9","0","21523","2017-09-26 16:16:44","15872"
"A3UVZZSK15KNPK","caus_thomas_all_3_v1","38YMOXR4MU0VJ0WDH6SJZ89R6E0W6X","6","1","1","1","3","7","1","11584","2017-09-26 16:16:44","15873"
"A3D0P1ROK7IBCL","caus_thomas_all_3_v1","3Z3ZLGNNSIVR2KD9MVVF0GFL8MI3QV","8","1","1","5","3","5","0","16304","2017-09-26 16:16:47","15874"
"A8TFVGAEEN2EC","caus_thomas_all_3_v1","3X1FV8S5JXSK14LE39W9PX32TJZVGM","0","4","4","7","1","5","1","7965","2017-09-26 16:16:48","15875"
"AVMIXXCHPD291","caus_thomas_all_3_v1","392CY0QWG1SZ3I8U91VP1JG5VCU4IB","5","2","2","7","9","3","1","9763","2017-09-26 16:16:50","15876"
"AXDLEGI6OD6V","caus_thomas_all_3_v1","3IQ1VMJRYTLLU6V8E8Z31T324W5A9B","4","3","3","1","9","7","1","12002","2017-09-26 16:16:50","15877"
"A391TNRLJ1YEIR","caus_thomas_all_3_v1","358010RM5EUVNQG4SJWDDJ3XW9XVXG","4","0","0","1","1","7","1","50145","2017-09-26 16:16:50","15878"
"A2O7HI43T5VIYT","caus_thomas_all_3_v1","3Z3ZLGNNSIVR2KD9MVVF0GFL8MHQ3H","0","3","3","9","9","1","0","10747","2017-09-26 16:16:51","15879"
"AWOVZKC753AG6","caus_thomas_all_3_v1","3HFNH7HEMHFSWWPXHA2ZJA4UCRMGQF","8","2","2","7","9","3","1","11552","2017-09-26 16:16:52","15880"
"A2KA1H6AA3Y80G","caus_thomas_all_3_v1","3AMW0RGHOD3D6C5441059PNH87MNP3","1","4","4","9","1","1","1","9483","2017-09-26 16:16:54","15881"
"A3UVZZSK15KNPK","caus_thomas_all_3_v1","38YMOXR4MU0VJ0WDH6SJZ89R6E0W6X","3","2","2","5","9","3","0","10449","2017-09-26 16:16:55","15882"
"A13JDX06ZXN4KJ","caus_thomas_all_3_v1","3D8YOU6S9ELIRW78M6DIHKOULYN6U6","0","1","1","3","5","7","1","43447","2017-09-26 16:16:57","15883"
"AXDLEGI6OD6V","caus_thomas_all_3_v1","3IQ1VMJRYTLLU6V8E8Z31T324W5A9B","4","4","4","9","5","5","1","7792","2017-09-26 16:16:59","15884"
"AO2M8J1H30OZF","caus_thomas_all_3_v1","3ZV9H2YQQD8WMH9VY4ULS5X7WNYW3R","1","0","0","5","5","7","0","30667","2017-09-26 16:17:00","15885"
"AVMIXXCHPD291","caus_thomas_all_3_v1","392CY0QWG1SZ3I8U91VP1JG5VCU4IB","3","3","3","9","5","9","0","10186","2017-09-26 16:17:01","15886"
"AWF9NK7QCH0R1","caus_thomas_all_3_v1","3HFNH7HEMHFSWWPXHA2ZJA4UCRMQGP","6","2","2","3","9","7","1","17083","2017-09-26 16:17:02","15887"
"A3D0P1ROK7IBCL","caus_thomas_all_3_v1","3Z3ZLGNNSIVR2KD9MVVF0GFL8MI3QV","8","2","2","7","7","3","0","14033","2017-09-26 16:17:02","15888"
"AHDLF2AUOBCH8","caus_thomas_all_3_v1","3X1FV8S5JXSK14LE39W9PX32TJ1VGO","1","0","0","3","9","9","0","85060","2017-09-26 16:17:03","15889"
"AZWCD7OSWKVVF","caus_thomas_all_3_v1","3SPJ0334214BW06KGQ4WT9ZC3SKYJ4","5","1","1","1","3","5","0","21167","2017-09-26 16:17:04","15890"
"A3UVZZSK15KNPK","caus_thomas_all_3_v1","38YMOXR4MU0VJ0WDH6SJZ89R6E0W6X","3","3","3","3","5","1","0","9203","2017-09-26 16:17:05","15891"
"A2O7HI43T5VIYT","caus_thomas_all_3_v1","3Z3ZLGNNSIVR2KD9MVVF0GFL8MHQ3H","1","4","4","7","5","7","0","13802","2017-09-26 16:17:06","15892"
"AWOVZKC753AG6","caus_thomas_all_3_v1","3HFNH7HEMHFSWWPXHA2ZJA4UCRMGQF","8","3","3","9","1","9","0","14114","2017-09-26 16:17:07","15893"
"A13JDX06ZXN4KJ","caus_thomas_all_3_v1","3D8YOU6S9ELIRW78M6DIHKOULYN6U6","0","2","2","5","9","1","0","10695","2017-09-26 16:17:09","15894"
"AWF9NK7QCH0R1","caus_thomas_all_3_v1","3HFNH7HEMHFSWWPXHA2ZJA4UCRMQGP","-1","3","3","7","7","5","0","7850","2017-09-26 16:17:10","15895"
"A3UVZZSK15KNPK","caus_thomas_all_3_v1","38YMOXR4MU0VJ0WDH6SJZ89R6E0W6X","4","4","4","9","1","9","1","7299","2017-09-26 16:17:14","15896"
"A391TNRLJ1YEIR","caus_thomas_all_3_v1","358010RM5EUVNQG4SJWDDJ3XW9XVXG","6","1","1","3","5","3","0","23911","2017-09-26 16:17:15","15897"
"AVMIXXCHPD291","caus_thomas_all_3_v1","392CY0QWG1SZ3I8U91VP1JG5VCU4IB","4","4","4","5","3","7","0","14056","2017-09-26 16:17:16","15898"
"A3D0P1ROK7IBCL","caus_thomas_all_3_v1","3Z3ZLGNNSIVR2KD9MVVF0GFL8MI3QV","7","3","3","3","1","7","1","14169","2017-09-26 16:17:17","15899"
"A13JDX06ZXN4KJ","caus_thomas_all_3_v1","3D8YOU6S9ELIRW78M6DIHKOULYN6U6","0","3","3","7","7","9","0","10299","2017-09-26 16:17:20","15900"
"AO2M8J1H30OZF","caus_thomas_all_3_v1","3ZV9H2YQQD8WMH9VY4ULS5X7WNYW3R","6","1","1","1","7","3","0","21279","2017-09-26 16:17:22","15901"
"AWOVZKC753AG6","caus_thomas_all_3_v1","3HFNH7HEMHFSWWPXHA2ZJA4UCRMGQF","0","4","4","5","5","5","0","14867","2017-09-26 16:17:23","15902"
"AZWCD7OSWKVVF","caus_thomas_all_3_v1","3SPJ0334214BW06KGQ4WT9ZC3SKYJ4","6","2","2","3","7","3","0","19401","2017-09-26 16:17:24","15903"
"A3D0P1ROK7IBCL","caus_thomas_all_3_v1","3Z3ZLGNNSIVR2KD9MVVF0GFL8MI3QV","7","4","4","1","5","1","1","9994","2017-09-26 16:17:28","15904"
"A391TNRLJ1YEIR","caus_thomas_all_3_v1","358010RM5EUVNQG4SJWDDJ3XW9XVXG","8","2","2","9","9","1","1","13067","2017-09-26 16:17:29","15905"
"AHDLF2AUOBCH8","caus_thomas_all_3_v1","3X1FV8S5JXSK14LE39W9PX32TJ1VGO","1","1","1","9","1","1","1","27329","2017-09-26 16:17:31","15906"
"A13JDX06ZXN4KJ","caus_thomas_all_3_v1","3D8YOU6S9ELIRW78M6DIHKOULYN6U6","0","4","4","1","3","3","1","14546","2017-09-26 16:17:36","15907"
"A1589I6Q42EF0F","caus_thomas_all_3_v1","3WOKGM4L71HS0G1WOVLS9DMEQ9F0OO","6","0","0","9","1","7","0","38973","2017-09-26 16:17:39","15908"
"AZWCD7OSWKVVF","caus_thomas_all_3_v1","3SPJ0334214BW06KGQ4WT9ZC3SKYJ4","5","3","3","5","9","9","0","16846","2017-09-26 16:17:42","15909"
"A391TNRLJ1YEIR","caus_thomas_all_3_v1","358010RM5EUVNQG4SJWDDJ3XW9XVXG","7","3","3","7","3","5","1","13350","2017-09-26 16:17:44","15910"
"AWF9NK7QCH0R1","caus_thomas_all_3_v1","3HFNH7HEMHFSWWPXHA2ZJA4UCRMQGP","2","4","4","9","1","1","1","32626","2017-09-26 16:17:44","15911"
"AO2M8J1H30OZF","caus_thomas_all_3_v1","3ZV9H2YQQD8WMH9VY4ULS5X7WNYW3R","5","2","2","3","1","5","0","23173","2017-09-26 16:17:46","15912"
"A1589I6Q42EF0F","caus_thomas_all_3_v1","3WOKGM4L71HS0G1WOVLS9DMEQ9F0OO","4","1","1","3","3","9","0","14075","2017-09-26 16:17:54","15913"
"AZWCD7OSWKVVF","caus_thomas_all_3_v1","3SPJ0334214BW06KGQ4WT9ZC3SKYJ4","7","4","4","7","1","7","0","12287","2017-09-26 16:17:55","15914"
"A391TNRLJ1YEIR","caus_thomas_all_3_v1","358010RM5EUVNQG4SJWDDJ3XW9XVXG","7","4","4","5","7","9","0","14468","2017-09-26 16:17:59","15915"
"AO2M8J1H30OZF","caus_thomas_all_3_v1","3ZV9H2YQQD8WMH9VY4ULS5X7WNYW3R","4","3","3","7","3","1","1","13510","2017-09-26 16:18:01","15916"
"AHDLF2AUOBCH8","caus_thomas_all_3_v1","3X1FV8S5JXSK14LE39W9PX32TJ1VGO","1","2","2","1","7","5","1","34037","2017-09-26 16:18:06","15917"
"AO2M8J1H30OZF","caus_thomas_all_3_v1","3ZV9H2YQQD8WMH9VY4ULS5X7WNYW3R","0","4","4","9","9","9","1","7659","2017-09-26 16:18:10","15918"
"A1589I6Q42EF0F","caus_thomas_all_3_v1","3WOKGM4L71HS0G1WOVLS9DMEQ9F0OO","4","2","2","5","9","5","0","16291","2017-09-26 16:18:11","15919"
"A1TOER30AQUY2F
","caus_thomas_all_3_v1","3QBD8R3Z21K9Z4JX7W8ULGCR7LV4O8","5","4","4","9","1","7","0","282575","2017-09-26 16:18:19","15920"
"A1589I6Q42EF0F","caus_thomas_all_3_v1","3WOKGM4L71HS0G1WOVLS9DMEQ9F0OO","8","3","3","1","5","3","0","18530","2017-09-26 16:18:31","15921"
"A2EX2FN2F4HN3C","caus_thomas_all_3_v1","39OWYR0EPKSVRYKOX0DBEB7KAL0YFY","4","0","0","9","3","1","1","22062","2017-09-26 16:18:31","15922"
"AHDLF2AUOBCH8","caus_thomas_all_3_v1","3X1FV8S5JXSK14LE39W9PX32TJ1VGO","1","3","3","5","3","7","1","26658","2017-09-26 16:18:34","15923"
"APUKBLA6VPEQ3","caus_thomas_all_3_v1","33JKGHPFYCV7L98RCL8DSLTM32BMN6","4","0","0","5","7","7","0","47268","2017-09-26 16:18:35","15924"
"A2EX2FN2F4HN3C","caus_thomas_all_3_v1","39OWYR0EPKSVRYKOX0DBEB7KAL0YFY","4","1","1","5","9","5","0","7802","2017-09-26 16:18:40","15925"
"A1589I6Q42EF0F","caus_thomas_all_3_v1","3WOKGM4L71HS0G1WOVLS9DMEQ9F0OO","4","4","4","7","7","1","1","8729","2017-09-26 16:18:40","15926"
"A2EX2FN2F4HN3C","caus_thomas_all_3_v1","39OWYR0EPKSVRYKOX0DBEB7KAL0YFY","8","2","2","1","5","7","1","9759","2017-09-26 16:18:51","15927"
"A2K33XG51K9PZF","caus_thomas_all_3_v1","35L9RVQFCOJYOLRPIP4MEBDKUC5HUK","5","0","0","9","5","3","1","14173","2017-09-26 16:18:52","15928"
"A1Z6F664MYBMVI","caus_thomas_all_3_v1","3JRJSWSMQHM25HN4D40F6ZQ7PJS3EH","7","0","0","7","3","9","1","40705","2017-09-26 16:18:54","15929"
"A2K33XG51K9PZF","caus_thomas_all_3_v1","35L9RVQFCOJYOLRPIP4MEBDKUC5HUK","3","1","1","1","1","7","0","4945","2017-09-26 16:18:58","15930"
"A2EX2FN2F4HN3C","caus_thomas_all_3_v1","39OWYR0EPKSVRYKOX0DBEB7KAL0YFY","4","3","3","3","7","3","0","7311","2017-09-26 16:18:59","15931"
"A2K33XG51K9PZF","caus_thomas_all_3_v1","35L9RVQFCOJYOLRPIP4MEBDKUC5HUK","6","2","2","5","9","9","0","3692","2017-09-26 16:19:03","15932"
"A2K33XG51K9PZF","caus_thomas_all_3_v1","35L9RVQFCOJYOLRPIP4MEBDKUC5HUK","3","3","3","3","3","1","1","2502","2017-09-26 16:19:06","15933"
"A2EX2FN2F4HN3C","caus_thomas_all_3_v1","39OWYR0EPKSVRYKOX0DBEB7KAL0YFY","0","4","4","7","1","9","1","6685","2017-09-26 16:19:07","15934"
"AHDLF2AUOBCH8","caus_thomas_all_3_v1","3X1FV8S5JXSK14LE39W9PX32TJ1VGO","1","4","4","7","5","3","1","35039","2017-09-26 16:19:10","15935"
"A2K33XG51K9PZF","caus_thomas_all_3_v1","35L9RVQFCOJYOLRPIP4MEBDKUC5HUK","5","4","4","7","7","5","1","3118","2017-09-26 16:19:11","15936"
"APUKBLA6VPEQ3","caus_thomas_all_3_v1","33JKGHPFYCV7L98RCL8DSLTM32BMN6","5","1","1","3","9","9","1","37638","2017-09-26 16:19:13","15937"
"ARN7DOJUG2YR1","caus_thomas_all_3_v1","3SUWZRL0MYE120AMW6YDD22RZAW6ES","1","0","0","3","9","7","0","28256","2017-09-26 16:19:15","15938"
"A1Z6F664MYBMVI","caus_thomas_all_3_v1","3JRJSWSMQHM25HN4D40F6ZQ7PJS3EH","8","1","1","1","5","1","0","30073","2017-09-26 16:19:25","15939"
"APUKBLA6VPEQ3","caus_thomas_all_3_v1","33JKGHPFYCV7L98RCL8DSLTM32BMN6","3","2","2","9","5","5","1","17525","2017-09-26 16:19:32","15940"
"ARN7DOJUG2YR1","caus_thomas_all_3_v1","3SUWZRL0MYE120AMW6YDD22RZAW6ES","4","1","1","9","1","9","1","16470","2017-09-26 16:19:32","15941"
"A3NTD3OOLIDN8N
","caus_thomas_all_3_v1","3QUO65DNQUP8G2DCM2ZCYKAL6YJOUF","0","0","0","3","3","5","1","71582","2017-09-26 16:19:43","15942"
"A1Z6F664MYBMVI","caus_thomas_all_3_v1","3JRJSWSMQHM25HN4D40F6ZQ7PJS3EH","8","2","2","3","9","5","1","17707","2017-09-26 16:19:44","15943"
"ARN7DOJUG2YR1","caus_thomas_all_3_v1","3SUWZRL0MYE120AMW6YDD22RZAW6ES","6","2","2","7","3","1","1","14076","2017-09-26 16:19:47","15944"
"APUKBLA6VPEQ3","caus_thomas_all_3_v1","33JKGHPFYCV7L98RCL8DSLTM32BMN6","2","3","3","7","1","1","1","23283","2017-09-26 16:19:56","15945"
"A1Z6F664MYBMVI","caus_thomas_all_3_v1","3JRJSWSMQHM25HN4D40F6ZQ7PJS3EH","6","3","3","9","1","7","0","16195","2017-09-26 16:20:01","15946"
"ARN7DOJUG2YR1","caus_thomas_all_3_v1","3SUWZRL0MYE120AMW6YDD22RZAW6ES","5","3","3","5","7","3","1","13891","2017-09-26 16:20:02","15947"
"A3U05VDP63V501","caus_thomas_all_3_v1","3SNLUL3WO4O0AHAF9AJK636RBTEUL4","7","0","0","9","7","3","1","46200","2017-09-26 16:20:13","15948"
"ARN7DOJUG2YR1","caus_thomas_all_3_v1","3SUWZRL0MYE120AMW6YDD22RZAW6ES","4","4","4","1","5","5","1","10880","2017-09-26 16:20:14","15949"
"A3NTD3OOLIDN8N
","caus_thomas_all_3_v1","3QUO65DNQUP8G2DCM2ZCYKAL6YJOUF","0","1","1","9","7","7","1","31711","2017-09-26 16:20:16","15950"
"APUKBLA6VPEQ3","caus_thomas_all_3_v1","33JKGHPFYCV7L98RCL8DSLTM32BMN6","6","4","4","1","3","3","0","20791","2017-09-26 16:20:18","15951"
"A2CE1MLLPPEX1A
","caus_thomas_all_3_v1","378XPAWRUCEE57OBI25GEM25NMQAIS","1","0","0","7","3","7","1","61295","2017-09-26 16:20:21","15952"
"A1Z6F664MYBMVI","caus_thomas_all_3_v1","3JRJSWSMQHM25HN4D40F6ZQ7PJS3EH","7","4","4","5","7","3","0","26581","2017-09-26 16:20:29","15953"
"A16O11N2DW1K5U","caus_thomas_all_3_v1","3SLE99ER0NE5J7IDOKTY9SP11HGBZO","7","0","0","7","7","3","0","37377","2017-09-26 16:20:41","15954"
"AT0COJ1G23ZB0","caus_thomas_all_3_v1","3ITXP059PWKE0EUBHKC7BNBBM7OJSB","0","0","0","5","1","9","0","16673","2017-09-26 16:20:53","15955"
"A3NTD3OOLIDN8N
","caus_thomas_all_3_v1","3QUO65DNQUP8G2DCM2ZCYKAL6YJOUF","0","2","2","5","1","9","1","36816","2017-09-26 16:20:54","15956"
"A3U05VDP63V501","caus_thomas_all_3_v1","3SNLUL3WO4O0AHAF9AJK636RBTEUL4","8","1","1","1","5","9","1","41366","2017-09-26 16:20:55","15957"
"A2DQSGRTWEG7LB","caus_thomas_all_3_v1","3R5F3LQFV2LP217MSPYKFCP08GYZOF","0","0","0","7","5","9","1","70070","2017-09-26 16:20:56","15958"
"AT0COJ1G23ZB0","caus_thomas_all_3_v1","3ITXP059PWKE0EUBHKC7BNBBM7OJSB","0","1","1","1","5","3","1","6420","2017-09-26 16:21:01","15959"
"A2QX2B50DM45E2","caus_thomas_all_3_v1","3FE7TXL1LIO2H2HQIVHAH6AT28HQ26","7","0","0","3","5","9","1","36908","2017-09-26 16:21:04","15960"
"A16O11N2DW1K5U","caus_thomas_all_3_v1","3SLE99ER0NE5J7IDOKTY9SP11HGBZO","2","1","1","5","9","1","0","25408","2017-09-26 16:21:07","15961"
"AT0COJ1G23ZB0","caus_thomas_all_3_v1","3ITXP059PWKE0EUBHKC7BNBBM7OJSB","0","2","2","7","7","5","1","7917","2017-09-26 16:21:10","15962"
"A2QX2B50DM45E2","caus_thomas_all_3_v1","3FE7TXL1LIO2H2HQIVHAH6AT28HQ26","8","1","1","1","9","5","1","8123","2017-09-26 16:21:13","15963"
"A3NTD3OOLIDN8N
","caus_thomas_all_3_v1","3QUO65DNQUP8G2DCM2ZCYKAL6YJOUF","0","3","3","7","5","3","1","19086","2017-09-26 16:21:14","15964"
"AT0COJ1G23ZB0","caus_thomas_all_3_v1","3ITXP059PWKE0EUBHKC7BNBBM7OJSB","0","3","3","3","9","1","0","6092","2017-09-26 16:21:17","15965"
"A2CE1MLLPPEX1A
","caus_thomas_all_3_v1","378XPAWRUCEE57OBI25GEM25NMQAIS","2","1","1","1","5","3","1","58185","2017-09-26 16:21:20","15966"
"AT0COJ1G23ZB0","caus_thomas_all_3_v1","3ITXP059PWKE0EUBHKC7BNBBM7OJSB","0","4","4","9","3","7","0","3012","2017-09-26 16:21:21","15967"
"A2DQSGRTWEG7LB","caus_thomas_all_3_v1","3R5F3LQFV2LP217MSPYKFCP08GYZOF","0","1","1","3","7","3","0","27608","2017-09-26 16:21:25","15968"
"A16O11N2DW1K5U","caus_thomas_all_3_v1","3SLE99ER0NE5J7IDOKTY9SP11HGBZO","6","2","2","9","3","7","0","16923","2017-09-26 16:21:25","15969"
"A3U05VDP63V501","caus_thomas_all_3_v1","3SNLUL3WO4O0AHAF9AJK636RBTEUL4","8","2","2","5","9","7","0","30945","2017-09-26 16:21:27","15970"
"A2QX2B50DM45E2","caus_thomas_all_3_v1","3FE7TXL1LIO2H2HQIVHAH6AT28HQ26","3","2","2","5","7","3","0","13027","2017-09-26 16:21:27","15971"
"A16O11N2DW1K5U","caus_thomas_all_3_v1","3SLE99ER0NE5J7IDOKTY9SP11HGBZO","1","3","3","1","1","9","0","9603","2017-09-26 16:21:36","15972"
"A3NTD3OOLIDN8N
","caus_thomas_all_3_v1","3QUO65DNQUP8G2DCM2ZCYKAL6YJOUF","0","4","4","1","9","1","0","21370","2017-09-26 16:21:36","15973"
"A1NMWUK6TZG333","caus_thomas_all_3_v1","3ZSY5X72NXCG0ALVI847T9N1ZZDOR9","4","0","0","9","9","7","0","32550","2017-09-26 16:21:37","15974"
"A2CE1MLLPPEX1A
","caus_thomas_all_3_v1","378XPAWRUCEE57OBI25GEM25NMQAIS","5","2","2","9","9","5","1","16355","2017-09-26 16:21:38","15975"
"A2QX2B50DM45E2","caus_thomas_all_3_v1","3FE7TXL1LIO2H2HQIVHAH6AT28HQ26","1","3","3","7","3","1","0","10546","2017-09-26 16:21:38","15976"
"A2QX2B50DM45E2","caus_thomas_all_3_v1","3FE7TXL1LIO2H2HQIVHAH6AT28HQ26","0","4","4","9","1","7","0","9445","2017-09-26 16:21:49","15977"
"A3U05VDP63V501","caus_thomas_all_3_v1","3SNLUL3WO4O0AHAF9AJK636RBTEUL4","7","3","3","7","1","5","1","22645","2017-09-26 16:21:50","15978"
"A16O11N2DW1K5U","caus_thomas_all_3_v1","3SLE99ER0NE5J7IDOKTY9SP11HGBZO","2","4","4","3","5","5","1","14306","2017-09-26 16:21:51","15979"
"A3ZRJ5ATKTDSW","caus_thomas_all_3_v1","3BWI6RSP7GAK60ORFG35JG2NULG7ES","4","0","0","7","9","5","1","26827","2017-09-26 16:21:52","15980"
"A1NMWUK6TZG333","caus_thomas_all_3_v1","3ZSY5X72NXCG0ALVI847T9N1ZZDOR9","4","1","1","1","1","9","1","18432","2017-09-26 16:21:57","15981"
"A2DQSGRTWEG7LB","caus_thomas_all_3_v1","3R5F3LQFV2LP217MSPYKFCP08GYZOF","0","2","2","1","3","7","1","31760","2017-09-26 16:21:58","15982"
"A2CE1MLLPPEX1A
","caus_thomas_all_3_v1","378XPAWRUCEE57OBI25GEM25NMQAIS","1","3","3","3","7","9","1","24210","2017-09-26 16:22:03","15983"
"AMAKRRMZ3M58S","caus_thomas_all_3_v1","3KMS4QQVK2R07TV7TLCK53S9C6VFKO","1","0","0","5","7","1","1","47068","2017-09-26 16:22:06","15984"
"A3ZRJ5ATKTDSW","caus_thomas_all_3_v1","3BWI6RSP7GAK60ORFG35JG2NULG7ES","0","1","1","9","5","7","0","14061","2017-09-26 16:22:07","15985"
"A1NMWUK6TZG333","caus_thomas_all_3_v1","3ZSY5X72NXCG0ALVI847T9N1ZZDOR9","4","2","2","7","7","5","0","10926","2017-09-26 16:22:09","15986"
"AL0SFLBAVTHU3","caus_thomas_all_3_v1","3VHP9MDGRNLIOVJJ18VMHKF17XMCF8","6","0","0","1","9","9","1","40539","2017-09-26 16:22:10","15987"
"A1HWI4N1RJGKYY","caus_thomas_all_3_v1","39O5D9O87TTN8J3QHDUKGBQ447H3CQ","7","0","0","3","7","9","0","20329","2017-09-26 16:22:14","15988"
"A2DQSGRTWEG7LB","caus_thomas_all_3_v1","3R5F3LQFV2LP217MSPYKFCP08GYZOF","0","3","3","5","1","5","1","18165","2017-09-26 16:22:17","15989"
"A3ZRJ5ATKTDSW","caus_thomas_all_3_v1","3BWI6RSP7GAK60ORFG35JG2NULG7ES","8","2","2","1","7","9","1","8923","2017-09-26 16:22:17","15990"
"A3U05VDP63V501","caus_thomas_all_3_v1","3SNLUL3WO4O0AHAF9AJK636RBTEUL4","8","4","4","3","3","1","0","25692","2017-09-26 16:22:17","15991"
"A2CE1MLLPPEX1A
","caus_thomas_all_3_v1","378XPAWRUCEE57OBI25GEM25NMQAIS","1","4","4","5","1","1","1","14315","2017-09-26 16:22:18","15992"
"A1NMWUK6TZG333","caus_thomas_all_3_v1","3ZSY5X72NXCG0ALVI847T9N1ZZDOR9","4","3","3","3","3","3","0","8536","2017-09-26 16:22:18","15993"
"AMAKRRMZ3M58S","caus_thomas_all_3_v1","3KMS4QQVK2R07TV7TLCK53S9C6VFKO","2","1","1","1","1","9","0","12586","2017-09-26 16:22:20","15994"
"A2SFOTEAHJPU7B","caus_thomas_all_3_v1","3X31TUMD7XNK1KJH7M90V11U0WHL1W","0","0","0","1","5","9","0","16230","2017-09-26 16:22:20","15995"
"A1HWI4N1RJGKYY","caus_thomas_all_3_v1","39O5D9O87TTN8J3QHDUKGBQ447H3CQ","1","1","1","7","1","1","0","6664","2017-09-26 16:22:22","15996"
"A273DS7TQWR9M1","caus_thomas_all_3_v1","3EF8EXOTT1WE6UVH41XNFMO2W791J7","8","0","0","3","1","3","0","39778","2017-09-26 16:22:22","15997"
"A1NMWUK6TZG333","caus_thomas_all_3_v1","3ZSY5X72NXCG0ALVI847T9N1ZZDOR9","4","4","4","5","5","1","1","5655","2017-09-26 16:22:25","15998"
"A3ZRJ5ATKTDSW","caus_thomas_all_3_v1","3BWI6RSP7GAK60ORFG35JG2NULG7ES","1","3","3","3","3","3","0","10865","2017-09-26 16:22:29","15999"
"A2DQSGRTWEG7LB","caus_thomas_all_3_v1","3R5F3LQFV2LP217MSPYKFCP08GYZOF","0","4","4","9","9","1","0","11522","2017-09-26 16:22:29","16000"
"A1HWI4N1RJGKYY","caus_thomas_all_3_v1","39O5D9O87TTN8J3QHDUKGBQ447H3CQ","8","2","2","1","5","5","0","7187","2017-09-26 16:22:30","16001"
"A2SFOTEAHJPU7B","caus_thomas_all_3_v1","3X31TUMD7XNK1KJH7M90V11U0WHL1W","5","1","1","7","3","3","0","9964","2017-09-26 16:22:31","16002"
"AMAKRRMZ3M58S","caus_thomas_all_3_v1","3KMS4QQVK2R07TV7TLCK53S9C6VFKO","1","2","2","7","9","3","0","10585","2017-09-26 16:22:32","16003"
"A1HWI4N1RJGKYY","caus_thomas_all_3_v1","39O5D9O87TTN8J3QHDUKGBQ447H3CQ","1","3","3","9","9","3","0","5831","2017-09-26 16:22:37","16004"
"AL0SFLBAVTHU3","caus_thomas_all_3_v1","3VHP9MDGRNLIOVJJ18VMHKF17XMCF8","7","1","1","9","3","5","0","26008","2017-09-26 16:22:37","16005"
"A2SFOTEAHJPU7B","caus_thomas_all_3_v1","3X31TUMD7XNK1KJH7M90V11U0WHL1W","4","2","2","5","9","1","0","4575","2017-09-26 16:22:37","16006"
"AMAKRRMZ3M58S","caus_thomas_all_3_v1","3KMS4QQVK2R07TV7TLCK53S9C6VFKO","1","3","3","9","5","7","1","5411","2017-09-26 16:22:38","16007"
"A273DS7TQWR9M1","caus_thomas_all_3_v1","3EF8EXOTT1WE6UVH41XNFMO2W791J7","8","1","1","5","7","5","0","16060","2017-09-26 16:22:39","16008"
"A1LHJTBS21DTI3","caus_thomas_all_3_v1","3UWN2HHPUY6AJ4LWWI4Z4USSVRUSNP","4","0","0","5","1","7","1","6324","2017-09-26 16:22:39","16009"
"A2UEDZOQ2060Y3
","caus_thomas_all_3_v1","3DEL4X4EL6MCRKB9XUJXKI7REQYXYQ","8","0","0","7","5","9","1","47217","2017-09-26 16:22:40","16010"
"AMAKRRMZ3M58S","caus_thomas_all_3_v1","3KMS4QQVK2R07TV7TLCK53S9C6VFKO","2","4","4","3","3","5","1","3884","2017-09-26 16:22:43","16011"
"A1HWI4N1RJGKYY","caus_thomas_all_3_v1","39O5D9O87TTN8J3QHDUKGBQ447H3CQ","2","4","4","5","3","7","1","5274","2017-09-26 16:22:43","16012"
"A1LHJTBS21DTI3","caus_thomas_all_3_v1","3UWN2HHPUY6AJ4LWWI4Z4USSVRUSNP","4","1","1","3","3","9","1","3301","2017-09-26 16:22:44","16013"
"A3ZRJ5ATKTDSW","caus_thomas_all_3_v1","3BWI6RSP7GAK60ORFG35JG2NULG7ES","0","4","4","5","1","1","0","15285","2017-09-26 16:22:45","16014"
"A1LHJTBS21DTI3","caus_thomas_all_3_v1","3UWN2HHPUY6AJ4LWWI4Z4USSVRUSNP","2","2","2","1","5","1","0","2485","2017-09-26 16:22:47","16015"
"A273DS7TQWR9M1","caus_thomas_all_3_v1","3EF8EXOTT1WE6UVH41XNFMO2W791J7","8","2","2","7","9","9","1","7457","2017-09-26 16:22:48","16016"
"A3IBB4TMW0E27
A3IBB4TMW0E27
A3IBB4TMW0E27
A3IBB4TMW0E27
A3IBB4TMW0E27","caus_thomas_all_3_v1","3M0NZ3JDP1Z3UR14NA2L66P9RLU5ZH","2","0","0","3","7","7","0","33359","2017-09-26 16:22:48","16017"
"A2SFOTEAHJPU7B","caus_thomas_all_3_v1","3X31TUMD7XNK1KJH7M90V11U0WHL1W","5","3","3","9","7","5","0","9861","2017-09-26 16:22:48","16018"
"A1DR76GT8LL1OG","caus_thomas_all_3_v1","3IUZPWIU1O82IFH2JAMK9RE979LKWR","3","0","0","1","1","1","1","52947","2017-09-26 16:22:52","16019"
"A1LHJTBS21DTI3","caus_thomas_all_3_v1","3UWN2HHPUY6AJ4LWWI4Z4USSVRUSNP","2","3","3","7","7","5","1","3738","2017-09-26 16:22:52","16020"
"AL0SFLBAVTHU3","caus_thomas_all_3_v1","3VHP9MDGRNLIOVJJ18VMHKF17XMCF8","2","2","2","7","1","3","0","14364","2017-09-26 16:22:52","16021"
"A273DS7TQWR9M1","caus_thomas_all_3_v1","3EF8EXOTT1WE6UVH41XNFMO2W791J7","8","3","3","1","5","1","0","5692","2017-09-26 16:22:54","16022"
"A1LHJTBS21DTI3","caus_thomas_all_3_v1","3UWN2HHPUY6AJ4LWWI4Z4USSVRUSNP","2","4","4","9","9","3","0","2314","2017-09-26 16:22:55","16023"
"A3IBB4TMW0E27
A3IBB4TMW0E27
A3IBB4TMW0E27
A3IBB4TMW0E27
A3IBB4TMW0E27","caus_thomas_all_3_v1","3M0NZ3JDP1Z3UR14NA2L66P9RLU5ZH","1","1","1","1","5","3","0","10720","2017-09-26 16:22:59","16024"
"A2UEDZOQ2060Y3
","caus_thomas_all_3_v1","3DEL4X4EL6MCRKB9XUJXKI7REQYXYQ","8","1","1","5","9","7","1","20783","2017-09-26 16:23:02","16025"
"A2SFOTEAHJPU7B","caus_thomas_all_3_v1","3X31TUMD7XNK1KJH7M90V11U0WHL1W","5","4","4","3","1","7","0","15077","2017-09-26 16:23:04","16026"
"A273DS7TQWR9M1","caus_thomas_all_3_v1","3EF8EXOTT1WE6UVH41XNFMO2W791J7","8","4","4","9","3","7","1","9099","2017-09-26 16:23:04","16027"
"A3IBB4TMW0E27
A3IBB4TMW0E27
A3IBB4TMW0E27
A3IBB4TMW0E27
A3IBB4TMW0E27","caus_thomas_all_3_v1","3M0NZ3JDP1Z3UR14NA2L66P9RLU5ZH","0","2","2","9","9","9","1","5659","2017-09-26 16:23:06","16028"
"AL0SFLBAVTHU3","caus_thomas_all_3_v1","3VHP9MDGRNLIOVJJ18VMHKF17XMCF8","1","3","3","3","5","7","0","13571","2017-09-26 16:23:07","16029"
"A2UEDZOQ2060Y3
","caus_thomas_all_3_v1","3DEL4X4EL6MCRKB9XUJXKI7REQYXYQ","8","2","2","9","7","1","1","13019","2017-09-26 16:23:16","16030"
"AL0SFLBAVTHU3","caus_thomas_all_3_v1","3VHP9MDGRNLIOVJJ18VMHKF17XMCF8","0","4","4","5","7","1","0","10517","2017-09-26 16:23:18","16031"
"A1DR76GT8LL1OG","caus_thomas_all_3_v1","3IUZPWIU1O82IFH2JAMK9RE979LKWR","6","1","1","3","9","5","1","26465","2017-09-26 16:23:19","16032"
"A3IBB4TMW0E27
A3IBB4TMW0E27
A3IBB4TMW0E27
A3IBB4TMW0E27
A3IBB4TMW0E27","caus_thomas_all_3_v1","3M0NZ3JDP1Z3UR14NA2L66P9RLU5ZH","4","3","3","7","1","1","0","13682","2017-09-26 16:23:21","16033"
"A2UEDZOQ2060Y3
","caus_thomas_all_3_v1","3DEL4X4EL6MCRKB9XUJXKI7REQYXYQ","8","3","3","3","3","5","0","11708","2017-09-26 16:23:29","16034"
"A3IBB4TMW0E27
A3IBB4TMW0E27
A3IBB4TMW0E27
A3IBB4TMW0E27
A3IBB4TMW0E27","caus_thomas_all_3_v1","3M0NZ3JDP1Z3UR14NA2L66P9RLU5ZH","1","4","4","5","3","5","1","9701","2017-09-26 16:23:31","16035"
"A1DR76GT8LL1OG","caus_thomas_all_3_v1","3IUZPWIU1O82IFH2JAMK9RE979LKWR","5","2","2","5","7","7","0","13302","2017-09-26 16:23:33","16036"
"A2UEDZOQ2060Y3
","caus_thomas_all_3_v1","3DEL4X4EL6MCRKB9XUJXKI7REQYXYQ","8","4","4","1","1","3","0","8746","2017-09-26 16:23:39","16037"
"A1DR76GT8LL1OG","caus_thomas_all_3_v1","3IUZPWIU1O82IFH2JAMK9RE979LKWR","3","3","3","7","5","3","1","9900","2017-09-26 16:23:44","16038"
"A1DR76GT8LL1OG","caus_thomas_all_3_v1","3IUZPWIU1O82IFH2JAMK9RE979LKWR","6","4","4","9","3","9","0","15490","2017-09-26 16:24:01","16039"
"A3NGERRLPQMDNI","caus_thomas_all_3_v1","37W3JXSD669X2K6JNPNBIZTK5OTWYX","0","0","0","3","5","5","0","41051","2017-09-26 16:24:04","16040"
"A5WY02WF02V49","caus_thomas_all_3_v1","338JKRMM260E9CDRCKNVEA1QN9EAH2","4","0","0","1","1","1","0","48838","2017-09-26 16:24:12","16041"
"A3T1Y8NSYS4JOA","caus_thomas_all_3_v1","3B4YI393V9X7ZHD14ELL3O2YIQ2SS1","5","0","0","9","1","7","0","71869","2017-09-26 16:24:21","16042"
"A5WY02WF02V49","caus_thomas_all_3_v1","338JKRMM260E9CDRCKNVEA1QN9EAH2","5","1","1","9","5","5","1","18570","2017-09-26 16:24:32","16043"
"A3NGERRLPQMDNI","caus_thomas_all_3_v1","37W3JXSD669X2K6JNPNBIZTK5OTWYX","2","1","1","1","9","9","1","31175","2017-09-26 16:24:36","16044"
"A5WY02WF02V49","caus_thomas_all_3_v1","338JKRMM260E9CDRCKNVEA1QN9EAH2","5","2","2","5","3","3","1","9953","2017-09-26 16:24:43","16045"
"A5WY02WF02V49","caus_thomas_all_3_v1","338JKRMM260E9CDRCKNVEA1QN9EAH2","3","3","3","7","9","9","1","7304","2017-09-26 16:24:51","16046"
"A3T1Y8NSYS4JOA","caus_thomas_all_3_v1","3B4YI393V9X7ZHD14ELL3O2YIQ2SS1","6","1","1","1","3","3","0","30135","2017-09-26 16:24:52","16047"
"A5WY02WF02V49","caus_thomas_all_3_v1","338JKRMM260E9CDRCKNVEA1QN9EAH2","7","4","4","3","7","7","0","9875","2017-09-26 16:25:02","16048"
"A2GCNTRH64LIOA","caus_thomas_all_3_v1","3WZ36BJEV3H9XV9EIS4GN4OKGLUTBQ","4","0","0","1","9","9","1","33511","2017-09-26 16:25:11","16049"
"A3T1Y8NSYS4JOA","caus_thomas_all_3_v1","3B4YI393V9X7ZHD14ELL3O2YIQ2SS1","4","2","2","5","5","9","1","20787","2017-09-26 16:25:13","16050"
"A144N9R7W4H67O","caus_thomas_all_3_v1","34BBWHLWHACBCKREJ718WBZWF5WIWE","7","0","0","5","9","5","1","35767","2017-09-26 16:25:18","16051"
"A3NGERRLPQMDNI","caus_thomas_all_3_v1","37W3JXSD669X2K6JNPNBIZTK5OTWYX","3","2","2","5","7","3","1","49274","2017-09-26 16:25:27","16052"
"A3T1Y8NSYS4JOA","caus_thomas_all_3_v1","3B4YI393V9X7ZHD14ELL3O2YIQ2SS1","6","3","3","7","9","5","1","17270","2017-09-26 16:25:32","16053"
"A2GCNTRH64LIOA","caus_thomas_all_3_v1","3WZ36BJEV3H9XV9EIS4GN4OKGLUTBQ","4","1","1","9","7","1","1","20448","2017-09-26 16:25:32","16054"
"A144N9R7W4H67O","caus_thomas_all_3_v1","34BBWHLWHACBCKREJ718WBZWF5WIWE","4","1","1","9","3","9","0","14859","2017-09-26 16:25:34","16055"
"A3NGERRLPQMDNI","caus_thomas_all_3_v1","37W3JXSD669X2K6JNPNBIZTK5OTWYX","3","3","3","7","3","1","1","10189","2017-09-26 16:25:38","16056"
"A3NTIB5IMQVLGS","caus_thomas_all_3_v1","33CID57104UGBNXWUQNJJUGRYGVL3O","6","0","0","7","3","9","0","40625","2017-09-26 16:25:42","16057"
"A1E88GHZQWP0QT","caus_thomas_all_3_v1","3H8DHMCCW9C399HB2FHUH3PO0TFDKB","6","0","0","1","5","9","1","65474","2017-09-26 16:25:44","16058"
"A2GCNTRH64LIOA","caus_thomas_all_3_v1","3WZ36BJEV3H9XV9EIS4GN4OKGLUTBQ","4","2","2","5","3","3","1","13333","2017-09-26 16:25:46","16059"
"A144N9R7W4H67O","caus_thomas_all_3_v1","34BBWHLWHACBCKREJ718WBZWF5WIWE","4","2","2","1","1","1","1","13574","2017-09-26 16:25:49","16060"
"A3NGERRLPQMDNI","caus_thomas_all_3_v1","37W3JXSD669X2K6JNPNBIZTK5OTWYX","3","4","4","9","1","7","1","9907","2017-09-26 16:25:49","16061"
"A2GCNTRH64LIOA","caus_thomas_all_3_v1","3WZ36BJEV3H9XV9EIS4GN4OKGLUTBQ","4","3","3","7","5","5","1","11710","2017-09-26 16:25:59","16062"
"A3NTIB5IMQVLGS","caus_thomas_all_3_v1","33CID57104UGBNXWUQNJJUGRYGVL3O","1","1","1","1","1","1","1","21615","2017-09-26 16:26:04","16063"
"A144N9R7W4H67O","caus_thomas_all_3_v1","34BBWHLWHACBCKREJ718WBZWF5WIWE","4","3","3","3","7","3","0","15276","2017-09-26 16:26:05","16064"
"A1BW7N44HGFDOC","caus_thomas_all_3_v1","3WJ1OXY92AHLG1CY9GTP1X8RKQOA8N","7","0","0","3","3","9","1","45001","2017-09-26 16:26:07","16065"
"A2GCNTRH64LIOA","caus_thomas_all_3_v1","3WZ36BJEV3H9XV9EIS4GN4OKGLUTBQ","4","4","4","3","1","7","1","8824","2017-09-26 16:26:09","16066"
"A144N9R7W4H67O","caus_thomas_all_3_v1","34BBWHLWHACBCKREJ718WBZWF5WIWE","3","4","4","7","5","7","1","11289","2017-09-26 16:26:17","16067"
"A1BW7N44HGFDOC","caus_thomas_all_3_v1","3WJ1OXY92AHLG1CY9GTP1X8RKQOA8N","7","1","1","5","9","1","1","10579","2017-09-26 16:26:18","16068"
"A3NTIB5IMQVLGS","caus_thomas_all_3_v1","33CID57104UGBNXWUQNJJUGRYGVL3O","8","2","2","9","9","7","0","14599","2017-09-26 16:26:20","16069"
"A1RTSWQLSN8FKX","caus_thomas_all_3_v1","3Y54SXRO1LMOTUIKIJLBSUG8561TU7","2","0","0","9","3","3","0","41041","2017-09-26 16:26:24","16070"
"A1BW7N44HGFDOC","caus_thomas_all_3_v1","3WJ1OXY92AHLG1CY9GTP1X8RKQOA8N","7","2","2","1","5","3","1","11979","2017-09-26 16:26:31","16071"
"A3NTIB5IMQVLGS","caus_thomas_all_3_v1","33CID57104UGBNXWUQNJJUGRYGVL3O","1","3","3","3","7","5","0","16659","2017-09-26 16:26:38","16072"
