"subject","version","assignmentId","rating","question_ind","trial_ind","focal_high","alt_high","alt2_high","greenSecond","rt","stamp","id"
"ACH337Q8X1SOI","caus_thomas_fire_v3","3DPNQGW4LLGJAYDT70M04GQ0PJ746O","2","0","0","0","1","0",,"1880","2017-10-10 15:22:36","22364"
"A25T92H4YKP4RN","caus_thomas_fire_v3","3TMFV4NEP8FINEF1ALPHJM5IF7W8W0","8","0","0","0","1","0",,"7102","2017-10-10 15:22:59","22365"
"A23KAJRDVCVGOE","caus_thomas_fire_v3","3QY5DC2MXRLEAP0JNZGMBQ17HVXUF3","7","0","0","0","1","1",,"12605","2017-10-10 15:23:00","22366"
"A39ROW50DWRRKT","caus_thomas_fire_v3","31LVTDXBL7B8UPIY5GOF1SJ77SFRL1","8","0","0","0","1","1",,"10609","2017-10-10 15:23:01","22367"
"A1R37XA9QPSIAN","caus_thomas_fire_v3","38JBBYETQOBNND68DI5YG4ID6HV4E9","8","0","0","0","1","0",,"17257","2017-10-10 15:23:21","22368"
" A38ECJNH8AQKV4
","caus_thomas_fire_v3","37Q970SNZE975XE7RV617NFPVOU1SU","6","0","0","0","1","1",,"17998","2017-10-10 15:23:29","22369"
"AADRVG2QVZH75","caus_thomas_fire_v3","38BQUHLA9W1P3U83D08Q7ATRWALOMR","6","0","0","0","1","1",,"14109","2017-10-10 15:23:31","22370"
"AU8YVB738G6C","caus_thomas_fire_v3","3TMSXRD2X610CEVGB0G24CIA11Q1W9","6","0","0","0","1","0",,"15791","2017-10-10 15:23:47","22371"
"A1UCB0D27PY623","caus_thomas_fire_v3","3KJYX6QCM9CUS6BFBFHCMAVIO9OJVL","8","0","0","0","1","0",,"10002","2017-10-10 15:23:50","22372"
"A3J9JCSAZJIRXI","caus_thomas_fire_v3","3JW0YLFXRTHTDFBJ8O5NX284XEYWW2","7","0","0","0","1","0",,"12080","2017-10-10 15:23:52","22373"
"A330JJZGJL7IG2","caus_thomas_fire_v3","3QAPZX2QN4EET9CR1XNV20JBS2P20P","7","0","0","0","1","1",,"26471","2017-10-10 15:23:56","22374"
"A3GAQNTZ1V1VO","caus_thomas_fire_v3","39N5ACM9HEOSHA1A3RH0ROSX6GB9PV","8","0","0","0","1","0",,"8303","2017-10-10 15:24:05","22375"
"AHUKCHMKUJHQQ","caus_thomas_fire_v3","3OONKJ5DKCKTK346MBIHTUIXKBIBOQ","8","0","0","0","1","0",,"14937","2017-10-10 15:24:06","22376"
"A2FBP73AQACKZ2","caus_thomas_fire_v3","3R6BYFZZP7D6RTUES4R9VX0BBDEXFY","8","0","0","0","1","1",,"12859","2017-10-10 15:24:12","22377"
"AOTUGFGVVZMSQ","caus_thomas_fire_v3","39O5D9O87TTN8J3QHDUKGBQ475MC33","8","0","0","0","1","0",,"8798","2017-10-10 15:24:12","22378"
"ATAHQP6QL09TX","caus_thomas_fire_v3","3IHR8NYAM72RK4VYMWL9AGHHKOX4PU","8","0","0","0","1","0",,"10674","2017-10-10 15:24:23","22379"
"A2XF84K0868FZO
","caus_thomas_fire_v3","3IQ1VMJRYTLLU6V8E8Z31T327UB9AF","8","0","0","0","1","0",,"27671","2017-10-10 15:24:23","22380"
"A1NMWUK6TZG333","caus_thomas_fire_v3","3137ONMDKG63ZTZS8J7ZPTFGWM4EG6","7","0","0","0","1","0",,"13729","2017-10-10 15:24:26","22381"
"A1JRTUDSDO6TQF","caus_thomas_fire_v3","308Q0PEVB8E00OE6QWRGIRRLK2G9IJ","6","0","0","0","1","0",,"25921","2017-10-10 15:24:27","22382"
"A2PDDOU75JXTN7","caus_thomas_fire_v3","3IX2EGZR7BK2ZZUY2VC2LD6F33ARJZ","8","0","0","0","1","1",,"21649","2017-10-10 15:24:29","22383"
"A193FEHCOS0E2J","caus_thomas_fire_v3","3G5W44VEU7J6LTR245I2NOSLGJ0KGW","7","0","0","0","1","0",,"16276","2017-10-10 15:24:30","22384"
"ANV4TUKMWLA8E","caus_thomas_fire_v3","35GMH2SV3EIRR6GQW2K7U2OIN8VEOT","7","0","0","0","1","0",,"19269","2017-10-10 15:24:34","22385"
"A1M1TSMJB12177","caus_thomas_fire_v3","33SA9F9TRXVZWFPSNOBHBW14QAUEW5","8","0","0","0","1","1",,"11909","2017-10-10 15:24:35","22386"
"A2T22FJ28MIGI","caus_thomas_fire_v3","37XITHEISWAFRLOSS3VGY9TKDJ2CR7","8","0","0","0","1","0",,"8253","2017-10-10 15:24:37","22387"
"A12VU5YSHGQH2V
","caus_thomas_fire_v3","3KWTYT08704JP2K089BCYREBFAR5L2","8","0","0","0","1","0",,"12026","2017-10-10 15:24:44","22388"
"A1DY3EW6Q0B5K5","caus_thomas_fire_v3","3L6L49WXW0YNRUDF2HCVCAC0TOW549","8","0","0","0","1","0",,"20460","2017-10-10 15:24:46","22389"
"A8TQSHYC5OOY4","caus_thomas_fire_v3","30LSNF239UWP04T75NC184J7EW6I20","8","0","0","0","1","1",,"16643","2017-10-10 15:24:49","22390"
"A1G1TGBJSQLJIB","caus_thomas_fire_v3","3N4BPTXIO8TPQBSXOA7JR3TCPRFKUW","8","0","0","0","1","0",,"16124","2017-10-10 15:24:51","22391"
"A2VWG0L5JHOBWN","caus_thomas_fire_v3","338JKRMM260E9CDRCKNVEA1QQ7JAH6","5","0","0","0","1","1",,"2664","2017-10-10 15:24:53","22392"
"AK3H5QRAROFGP","caus_thomas_fire_v3","39LNWE0K4UXYKG29O7M7ENEZXNPUIU","7","0","0","0","1","0",,"9846","2017-10-10 15:24:54","22393"
"A1KQWBK5WHCNYQ","caus_thomas_fire_v3","3YJ6NA41JBHHNMEJP38DGI602LNPJ6","4","0","0","0","1","1",,"11812","2017-10-10 15:24:55","22394"
"A3IR7DFEKLLLO","caus_thomas_fire_v3","3Z4AIRP3C6EF1E06L5CO6VWHA3W1X2","6","0","0","0","1","1",,"8274","2017-10-10 15:24:55","22395"
"A1H6AZSS5DQ0KD","caus_thomas_fire_v3","3PQMUDRV7R7TBP79UQXTVKQO3S3IIB","7","0","0","0","1","0",,"12507","2017-10-10 15:24:57","22396"
"A18M1IAKPX9XQT","caus_thomas_fire_v3","3E1QT0TDFPA0MJVWL4L2IVWA0WYI83","8","0","0","0","1","0",,"10863","2017-10-10 15:24:58","22397"
"A3VEZCWOO7DSBN","caus_thomas_fire_v3","3UXUOQ9OKEYHGN7FZB1JNXCWC4N7A1","8","0","0","0","1","1",,"10143","2017-10-10 15:24:59","22398"
"AXHB59WY3NYZ4","caus_thomas_fire_v3","3ZOTGHDK5ICS1PL8XX4CJJSXOZ3OS3","8","0","0","0","1","0",,"15128","2017-10-10 15:25:02","22399"
"A1DDBGQDMZZ1VW","caus_thomas_fire_v3","3NJM2BJS4W7UF88DFBRRTET5C1EPCS","8","0","0","0","1","1",,"15704","2017-10-10 15:25:08","22400"
"A2BV3R7IE3F5O8
","caus_thomas_fire_v3","3SKEMFQBZ36RSELKL76EVBBNS0NK8G","8","0","0","0","1","0",,"33108","2017-10-10 15:25:08","22401"
"AD1ILDUXZHASF","caus_thomas_fire_v3","3PM8NZGV8YH3IIKN6K237W4PIFOXQT","6","0","0","0","1","1",,"3984","2017-10-10 15:25:15","22402"
"A10YS8AVLQWUZZ","caus_thomas_fire_v3","3O6CYIULED2GLBMEDOQMFEN7CYNWU3","8","0","0","0","1","0",,"32168","2017-10-10 15:25:20","22403"
"A9FCR1QRZAM3U","caus_thomas_fire_v3","3FIJLY1B6U51IKSN6DHS1KE89E6PF3","7","0","0","0","1","1",,"16274","2017-10-10 15:25:21","22404"
"A2JYMJRDXYSJY1","caus_thomas_fire_v3","3V0Z7YWSIY1UMAD74UBKNT91MY2V2A","7","0","0","0","1","1",,"11648","2017-10-10 15:25:31","22405"
"A1LOD3LNX7FUPJ","caus_thomas_fire_v3","31IBVUNM9S0EN4PJSPQR7C3QV27FVE","4","0","0","0","1","0",,"2543","2017-10-10 15:25:33","22406"
"A1BEBN58T1E0TH","caus_thomas_fire_v3","34FNN24DCMA3P1RZRO02SZG7OPVY5N","8","0","0","0","1","1",,"5326","2017-10-10 15:25:35","22407"
"A2L1XH2KWKAF4F","caus_thomas_fire_v3","3PXX5PX6LXZ4IZA5CSDZSZYSVUEBAR","8","0","0","0","1","1",,"10064","2017-10-10 15:25:41","22408"
"A2MQGU4NZZ8V0H

","caus_thomas_fire_v3","3B2X28YI3WG3VXY2MFWNCUW6ZBOB61","8","0","0","0","1","0",,"15717","2017-10-10 15:25:42","22409"
"A3JT22BLG866CK","caus_thomas_fire_v3","3ZPBJO59KP2C7JG3WUEX4B9WBAGHDF","6","0","0","0","1","1",,"10340","2017-10-10 15:25:45","22410"
"A1Z2PN56VHHKNM","caus_thomas_fire_v3","3RYC5T2D73UYLAXWX8HMI9SRC2HPRY","4","0","0","0","1","0",,"17350","2017-10-10 15:25:48","22411"
"A14WLAP6TCEKO0","caus_thomas_fire_v3","3VNL7UK1XFKZACLUNUQC6UF5YHRFTY","5","0","0","0","1","1",,"5134","2017-10-10 15:25:48","22412"
"A3UQXYJ8EV62WE","caus_thomas_fire_v3","3PH3VY7DJLYX7AGOJBPUW62MEG2WZS","8","0","0","0","1","0",,"23389","2017-10-10 15:25:51","22413"
"A3CP3V6ROWGYDF","caus_thomas_fire_v3","3HMIGG0U4L7MCJA1PM754JQYQFWY8P","8","0","0","0","1","1",,"7799","2017-10-10 15:26:04","22414"
"A1Z7QTDFX7ZM2O","caus_thomas_fire_v3","3QBD8R3Z21K9Z4JX7W8ULGCRAJ1O4X","7","0","0","0","1","1",,"11122","2017-10-10 15:26:18","22415"
"A3TK7HVFEKB00R","caus_thomas_fire_v3","3EWIJTFFVO86OPO7UHIW41S0P6G0ES","0","0","0","0","1","1",,"16440","2017-10-10 15:26:22","22416"
"A3O2JUIF4DZQJU","caus_thomas_fire_v3","333U7HK6I9G8YPBTKUHIGOPBO2KJDM","1","0","0","0","1","0",,"28115","2017-10-10 15:26:25","22417"
"A3O81LHBBI8NPK
","caus_thomas_fire_v3","3KJYX6QCM9CUS6BFBFHCMAVIO9OVJX","7","0","0","0","1","0",,"10276","2017-10-10 15:26:27","22418"
"AP3EZGN902UO2","caus_thomas_fire_v3","39U1BHVTDLS4U0513ZPA5LQ8VRMT33","5","0","0","0","1","0",,"14327","2017-10-10 15:26:27","22419"
"AY9BSXER7AYI6","caus_thomas_fire_v3","3B837J3LDOXVY2DOPPLGDEX2ZMOSRH","7","0","0","0","1","1",,"13320","2017-10-10 15:26:35","22420"
"A3B96BW9I8IZA2","caus_thomas_fire_v3","3IFS6Q0HJIKI53A5Z2R7ZMWBCQ5IS3","5","0","0","0","1","1",,"11668","2017-10-10 15:26:37","22421"
"A1FJAVZWHRQ4HH","caus_thomas_fire_v3","3ZY8KE4ISJ4BETFS651LJB7424GVQO","7","0","0","0","1","0",,"12939","2017-10-10 15:26:39","22422"
"A239EUWY6SNDEZ","caus_thomas_fire_v3","30IQTZXKAK7FUPFOPM8OSQD75BPX0U","8","0","0","0","1","0",,"10908","2017-10-10 15:26:46","22423"
"A2G9163W7Y67UD","caus_thomas_fire_v3","31QTRG6Q2TE7IB9IB39GQ5LOFPWPY0","8","0","0","0","1","1",,"21556","2017-10-10 15:26:48","22424"
"AKZD89B2WLSX7","caus_thomas_fire_v3","3Z7ISHFUH0WMH9K6L89OIQZ0W908ZQ","7","0","0","0","1","0",,"30714","2017-10-10 15:27:00","22425"
" A1L04TXTIC3U9X","caus_thomas_fire_v3","3I2PTA7R3TVXYILG71NEH2WNM69QKX","8","0","0","0","1","1",,"19021","2017-10-10 15:27:01","22426"
"A1FO1SROGRL5RH","caus_thomas_fire_v3","37ZHEEHM6WNHW28UQWM90PYQ6VW374","6","0","0","0","1","0",,"12179","2017-10-10 15:27:01","22427"
"AJ1VMW9NT7287","caus_thomas_fire_v3","3UN61F00HWQUS0FDDT88K3NAL2GR5E","5","0","0","0","1","1",,"15867","2017-10-10 15:27:12","22428"
"A1UCM4T7TZDUAO","caus_thomas_fire_v3","3KB8R4ZV1E85SQN8YS59OL9VTPRGB8","8","0","0","0","1","1",,"22168","2017-10-10 15:27:16","22429"
"A15Y215D57OSO5","caus_thomas_fire_v3","30ZX6P7VF8WLVFDDN5X1K5Y7RBVJ2D","3","0","0","0","1","1",,"8994","2017-10-10 15:27:16","22430"
"AYBYOVKNSQXV8","caus_thomas_fire_v3","3OVHNO1VE62YY4GX2GK44ID170XDZ1","5","0","0","0","1","1",,"16353","2017-10-10 15:27:18","22431"
"A13UMY3NL33676","caus_thomas_fire_v3","3U5NZHP4LR3LWGJT135S45QLPTJPH1","8","0","0","0","1","1",,"13326","2017-10-10 15:27:18","22432"
"A29U4ZQRLMIB61","caus_thomas_fire_v3","308XBLVESI5WHGWME3ZLNPN2VY2RBF","6","0","0","0","1","0",,"12254","2017-10-10 15:27:32","22433"
"A2BGRGVU9HG0C6","caus_thomas_fire_v3","3R2UR8A0IAH0X677R7AZIR9P3E5OXB","1","0","0","0","1","1",,"22637","2017-10-10 15:27:40","22434"
"A12CEB35YXRM8X","caus_thomas_fire_v3","3ERET4BTVMAR6J4UQZCSV76YC769KX","6","0","0","0","1","1",,"2413","2017-10-10 15:27:41","22435"
"A1RATFICCKLCQ","caus_thomas_fire_v3","36AHBNMV1RDYTE6S6UILQB4Z16TYDV","6","0","0","0","1","1",,"33040","2017-10-10 15:27:52","22436"
"AFIFVNL3CREJN","caus_thomas_fire_v3","3KXIR214I4HVSXUSKYAXE39O9F642A","8","0","0","0","1","1",,"16879","2017-10-10 15:27:57","22437"
"A7KLTVEIASF4J","caus_thomas_fire_v3","3U84XHCDICELY8X495JB1EJVUN4Z4A","4","0","0","0","1","0",,"2400","2017-10-10 15:28:04","22438"
"A2YHOJLEZR8663","caus_thomas_fire_v3","3MD9PLUKKIF7KG7ARAY70NPVL4ZNZT","8","0","0","0","1","0",,"53781","2017-10-10 15:28:13","22439"
"ACTPXLRRLBWFB
","caus_thomas_fire_v3","3ERMJ6L4DYTIIOG4WEROWO7W6LCM70","8","0","0","0","1","0",,"33388","2017-10-10 15:28:13","22440"
"A3180VXVP8MOIH","caus_thomas_fire_v3","35GCEFQ6I5P0GCE09RESR9RPGN8Z3P","8","0","0","0","1","1",,"15300","2017-10-10 15:28:18","22441"
"A3I9743KVD971V","caus_thomas_fire_v3","3KXIR214I4HVSXUSKYAXE39O9F6248","8","0","0","0","1","1",,"11239","2017-10-10 15:28:21","22442"
"A2LFT9N17HS9FX","caus_thomas_fire_v3","3VJ40NV2QIOTGPYNMX92TOOJQIHOTS","5","0","0","0","1","1",,"2782","2017-10-10 15:28:24","22443"
"A1S2QEA1MA88JF","caus_thomas_fire_v3","3QAPZX2QN4EET9CR1XNV20JBS3Q02Q","8","0","0","0","1","1",,"11073","2017-10-10 15:28:35","22444"
"A2X9AEDAHF7O7S","caus_thomas_fire_v3","39GHHAVOMFSVYTS0RJGPDKV5BQS4JX","8","0","0","0","1","0",,"20527","2017-10-10 15:28:35","22445"
"A25894CV44ZZ0V","caus_thomas_fire_v3","3RKNTXVS3MZKX0PWXD3CKLSML2X4AE","8","0","0","0","1","0",,"12717","2017-10-10 15:28:37","22446"
"AKPXWXJFLHM08","caus_thomas_fire_v3","3NL0RFNU0FOQ9DYI94G1EZVIQFSK4C","7","0","0","0","1","1",,"6444","2017-10-10 15:28:41","22447"
"A2SMUTM50TMJHG","caus_thomas_fire_v3","3SPJ0334214BW06KGQ4WT9ZC6RRJYX","8","0","0","0","1","1",,"12516","2017-10-10 15:28:41","22448"
"A3VAGJTE25UK3Q","caus_thomas_fire_v3","3IHR8NYAM72RK4VYMWL9AGHHKPY4PX","2","0","0","0","1","1",,"8489","2017-10-10 15:28:47","22449"
"A3UUK65H63DHFX","caus_thomas_fire_v3","3MX2NQ3YC9VEPW1PMSE09L9YMK25XR","8","0","0","0","1","0",,"16380","2017-10-10 15:28:47","22450"
"AZHAEAUN4XD7J","caus_thomas_fire_v3","3K772S5NP8CHZPU3SPPHATRHBNIHEB","7","0","0","0","1","1",,"9134","2017-10-10 15:28:56","22451"
"ASWCSRH05NVCT","caus_thomas_fire_v3","3QL2OFSM96JUCNW0ZWEZPPOACNECNM","6","0","0","0","1","0",,"14643","2017-10-10 15:29:00","22452"
"A2V6W655RENYIE","caus_thomas_fire_v3","3VAR3R6G1P2AI56ZJZY72SSWC5XO84","7","0","0","0","1","1",,"37729","2017-10-10 15:29:11","22453"
"AFKIHFDY5MDA5","caus_thomas_fire_v3","3OVR4I9USPKCKGWDM90YAL7RPLK4QO","8","0","0","0","1","1",,"24154","2017-10-10 15:29:14","22454"
"A29CCD6DOOQCGB","caus_thomas_fire_v3","3WJ1OXY92AHLG1CY9GTP1X8RNPUA8U","7","0","0","0","1","0",,"16950","2017-10-10 15:29:15","22455"
"A1GV0UZU0T2ORS","caus_thomas_fire_v3","3WYP994K17SZ85RDW7A7K5U7KK66YB","7","0","0","0","1","0",,"9249","2017-10-10 15:29:24","22456"
"A1DHYSXOHE5VQL","caus_thomas_fire_v3","3483FV8BEEK97KY63M3CB1T256C26T","7","0","0","0","1","1",,"77007","2017-10-10 15:29:26","22457"
"A2UIHBB5MDLLSV","caus_thomas_fire_v3","37TD41K0AHARS0O57SVLOJYGZMMCSY","8","0","0","0","1","0",,"12432","2017-10-10 15:29:28","22458"
"A3180VXVP8MOIH","caus_thomas_fire_v3","35GCEFQ6I5P0GCE09RESR9RPGN8Z3P","8","0","0","0","1","0",,"9506","2017-10-10 15:29:45","22459"
"A1H6PVWRCYN0E4","caus_thomas_fire_v3","3ZPBJO59KP2C7JG3WUEX4B9WBBHHDI","8","0","0","0","1","0",,"22817","2017-10-10 15:30:15","22460"
" A3IGZ3N6TNPXUU","caus_thomas_fire_v3","3IUZPWIU1O82IFH2JAMK9RE9A7QKWV","7","0","0","0","1","0",,"5913","2017-10-10 15:30:20","22461"
"A3ANNQ73J8M158","caus_thomas_fire_v3","31EUONYN2V48TH2CRS9HU6C4N3XOV8","7","0","0","0","1","1",,"5888","2017-10-10 15:30:24","22462"
"A31Q7PWLBCU2X0","caus_thomas_fire_v3","3C8HJ7UOP7V12YMAF9J7N80VGFQMZV","7","0","0","0","1","1",,"7150","2017-10-10 15:30:32","22463"
"A1I4VM94N3EM0W","caus_thomas_fire_v3","34T446B1C0FRRR4TYQC1EDSX4U3C0B","5","0","0","0","1","0",,"56479","2017-10-10 15:30:37","22464"
"ARAW2BY7JQ2JH
","caus_thomas_fire_v3","3Y5140Z9DXHLSBUD7LND4HR0P6YIPN","2","0","0","0","1","1",,"33009","2017-10-10 15:30:37","22465"
"A3180VXVP8MOIH","caus_thomas_fire_v3","35GCEFQ6I5P0GCE09RESR9RPGN8Z3P","8","0","0","0","1","1",,"12704","2017-10-10 15:30:42","22466"
"A33XV57T69HVA","caus_thomas_fire_v3","30OG32W0SUC99LGEVNKUFDODXZRNEQ","1","0","0","0","1","1",,"11499","2017-10-10 15:31:14","22467"
"A2DPKKEEW2I6QK","caus_thomas_fire_v3","3ZPPDN2SLVXOKJCKUD1PXCTTS99E9F","4","0","0","0","1","1",,"2409","2017-10-10 15:31:44","22468"
"A22KRF782ELLB0","caus_thomas_fire_v3","3JRJSWSMQHM25HN4D40F6ZQ7SI0E31","7","0","0","0","1","0",,"13044","2017-10-10 15:31:49","22469"
"A2HG1N3BVQO6I","caus_thomas_fire_v3","3ZY8KE4ISJ4BETFS651LJB7425HQVM","7","0","0","0","1","1",,"17439","2017-10-10 15:32:00","22470"
"AA3R1CNZAEH2O","caus_thomas_fire_v3","3PWWM24LHSZWBYHUW10AVFPTB0128C","8","0","0","0","1","1",,"14833","2017-10-10 15:32:24","22471"
"A2TBXASXZIRNNW","caus_thomas_fire_v3","39JEC7537U27KS591N0QZ6INYPFCV0","3","0","0","0","1","1",,"9158","2017-10-10 15:32:25","22472"
"A3PKNPKC9QWYVV","caus_thomas_fire_v3","33LK57MYLT640TZFZ6FTZHZ1848SZD","8","0","0","0","1","1",,"30086","2017-10-10 15:32:37","22473"
"A104IMSD18AEVC","caus_thomas_fire_v3","33L7PJKHCGZQVXB7FGK6W2YJBEFT8Y","8","0","0","0","1","1",,"11541","2017-10-10 15:32:43","22474"
"A32QJF67JMJFKX","caus_thomas_fire_v3","33L7PJKHCGZQVXB7FGK6W2YJBDE8TA","8","0","0","0","1","1",,"8603","2017-10-10 15:32:44","22475"
"A2E2UARVOVDR9Y","caus_thomas_fire_v3","3LEP4MGT3G12G6DHW241I06YGXBBDT","8","0","0","0","1","1",,"9925","2017-10-10 15:32:59","22476"
"A2VP0TNWIJVKA8","caus_thomas_fire_v3","3TPZPLC3M0D628CUMIGQ0BPB6P33PC","7","0","0","0","1","1",,"5747","2017-10-10 15:33:17","22477"
"A1OSRB1Q63XXWZ","caus_thomas_fire_v3","39RP059MEHU5K0JU9V341QTSPC5BMF","8","0","0","0","1","0",,"20868","2017-10-10 15:33:27","22478"
"A9310DDBK786Q","caus_thomas_fire_v3","3SLE99ER0NE5J7IDOKTY9SP14GNBZW","8","0","0","0","1","1",,"11256","2017-10-10 15:33:29","22479"
"AYCY10YQ5OZZ7","caus_thomas_fire_v3","3NAPMVF0ZWGSBKCBMW84HFTY0HX72Y","4","0","0","0","1","0",,"2082","2017-10-10 15:33:38","22480"
"AS2WTWYVRW9BV","caus_thomas_fire_v3","382M9COHEHGM4B0NSOWGT8G75VKUEP","6","0","0","0","1","1",,"7853","2017-10-10 15:33:50","22481"
"ACSFNLK07LJ2P","caus_thomas_fire_v3","3GU1KF0O4I2B53G71BVWIUNNUHGBPB","8","0","0","0","1","0",,"22756","2017-10-10 15:34:11","22482"
"A1OMOGIBA6J3OJ","caus_thomas_fire_v3","3BXQMRHWKZZKGZS09MKZ6GLGEXBUME","8","0","0","0","1","1",,"14658","2017-10-10 15:34:13","22483"
"A3MRGTMHCJL67Q","caus_thomas_fire_v3","34T446B1C0FRRR4TYQC1EDSX4U4C0C","8","0","0","0","1","0",,"35103","2017-10-10 15:34:25","22484"
"A3U306W3BPP0J6
","caus_thomas_fire_v3","3LOZAJ85YDEMQZI249C2BE6M2ABX2I","8","0","0","0","1","0",,"20172","2017-10-10 15:34:32","22485"
"A2K9N9ZEJK81XZ","caus_thomas_fire_v3","3R3YRB5GRF4JEYJBCJUUXPQGKFLAU7","8","0","0","0","1","0",,"10853","2017-10-10 15:34:41","22486"
"ACSFNLK07LJ2P","caus_thomas_fire_v3","3GU1KF0O4I2B53G71BVWIUNNUHGBPB","8","0","0","0","1","1",,"8535","2017-10-10 15:35:04","22487"
"A298FAWY76NZA9
A298FAWY76NZA9
A298FAWY76NZA9
A298FAWY76NZA9","caus_thomas_fire_v3","3DY4FPOOA1PBQUUSJKQLO1H9YRJRVO","7","0","0","0","1","1",,"16454","2017-10-10 15:35:10","22488"
"A3EG8X7S467VYQ","caus_thomas_fire_v3","3DPNQGW4LLGJAYDT70M04GQ0PK946S","7","0","0","0","1","1",,"49342","2017-10-10 15:35:15","22489"
"AA4O2W236E3FW","caus_thomas_fire_v3","3Z2R0DQ0JHFDKZRL94MANPLFM3Z2EB","5","0","0","0","1","0",,"27286","2017-10-10 15:35:36","22490"
"A2N4DD7IS7EI2D","caus_thomas_fire_v3","3DPNQGW4LLGJAYDT70M04GQ0PK964U","8","0","0","0","1","1",,"48471","2017-10-10 15:35:45","22491"
"AGO50MPWNWT37","caus_thomas_fire_v3","3H0W84IWBK3UOJ86OU1BOXTNYWHER6","8","0","0","0","1","0",,"17149","2017-10-10 15:35:50","22492"
"AESEZX8S7Z3IC","caus_thomas_fire_v3","3XIQGXAUMC9TC0F8ALTX75NUDQY7X9","7","0","0","0","1","1",,"10213","2017-10-10 15:35:51","22493"
"A2SOHTPWH4VGP5","caus_thomas_fire_v3","3VD82FOHKQPCU8WC0BEC4EOF2XKCO2","7","0","0","0","1","0",,"11844","2017-10-10 15:35:52","22494"
"A1HB76XJP9SBM0
A1HB76XJP9SBM0
A1HB76XJP9SBMO
","caus_thomas_fire_v3","3B837J3LDOXVY2DOPPLGDEX2ZNPRSJ","8","0","0","0","1","1",,"10716","2017-10-10 15:35:54","22495"
"A18V3RFUE8SU7R","caus_thomas_fire_v3","3ATPCQ38J8B0V73GMKRJ0AWTG4YAY9","8","0","0","0","1","0",,"15951","2017-10-10 15:35:56","22496"
" A2MACDVP9MWKHA","caus_thomas_fire_v3","3CN4LGXD5XPLTINZDJHSN7ATOU24YS","7","0","0","0","1","0",,"18271","2017-10-10 15:36:07","22497"
"A2Y4OO1ZK74CSM","caus_thomas_fire_v3","30H4UDGLT2J7OUK4S0L5WAYH6GKMPB","7","0","0","0","1","0",,"7444","2017-10-10 15:36:11","22498"
"A29AX5O8KL48F8","caus_thomas_fire_v3","358010RM5EUVNQG4SJWDDJ3XZ84VXO","7","0","0","0","1","1",,"12565","2017-10-10 15:36:14","22499"
"A22ZZ534XUL2JA","caus_thomas_fire_v3","36V4Q8R5ZK1SO6LJSD0UWFORBC6MQ2","7","0","0","0","1","0",,"10429","2017-10-10 15:36:28","22500"
"A2QMHQXR8K4VJ2","caus_thomas_fire_v3","37UEWGM5HT9V4IEUC66WHDAT9MB1R6","4","0","0","0","1","0",,"1478","2017-10-10 15:36:39","22501"
"A1FQE3NEOHSKOX","caus_thomas_fire_v3","3KAKFY4PGU3ELMPQ9NQ6REOZKB8I3F","4","0","0","0","1","1",,"19444","2017-10-10 15:37:07","22502"
"A1C8FN01981A69","caus_thomas_fire_v3","3ATPCQ38J8B0V73GMKRJ0AWTG4XYAW","8","0","0","0","1","0",,"13276","2017-10-10 15:37:58","22503"
"AEF74ZYJTTEIA","caus_thomas_fire_v3","3M1CVSFP606RM5CUVAAPNOTRHVHQAM","8","0","0","0","1","1",,"8129","2017-10-10 15:38:02","22504"
"A2UHMLMFCP9J72","caus_thomas_fire_v3","3QFUFYSY9YGFTR648TP4YM3DIIA4FR","6","0","0","0","1","0",,"9909","2017-10-10 15:38:05","22505"
"A2Z7HHTA5WOLL5","caus_thomas_fire_v3","3G5F9DBFOPYY10GPNFERAXF3BIMVHW","3","0","0","0","1","1",,"3512","2017-10-10 15:38:28","22506"
"A1MHKBAGZN1P8K","caus_thomas_fire_v3","31Z0PCVWUKGMVJ6O5BS0I22O0UAT7C","6","0","0","0","1","1",,"11451","2017-10-10 15:38:48","22507"
"A3JIXUMSPOB36C","caus_thomas_fire_v3","3QECW5O0KH278FS5HID3KIOS9OFT5X","8","0","0","0","1","1",,"13704","2017-10-10 15:38:50","22508"
"A2FVBM2LXBFCKP","caus_thomas_fire_v3","3H0W84IWBK3UOJ86OU1BOXTNYWHER6","3","0","0","0","1","1",,"29136","2017-10-10 15:39:00","22509"
"A2GTL8ODM5JYA2","caus_thomas_fire_v3","31JLPPHS2UVOH80T7I3BBBKLWK7O3G","8","0","0","0","1","1",,"9987","2017-10-10 15:39:10","22510"
"A1EMBQB8FM6EZH","caus_thomas_fire_v3","3I2PTA7R3TVXYILG71NEH2WNM7BQK1","3","0","0","0","1","0",,"8426","2017-10-10 15:39:32","22511"
"A17AF9I56P3RVV","caus_thomas_fire_v3","3JCG6DTRV3RJ9LJBK67BDO8WLD3QQT","8","0","0","0","1","0",,"25185","2017-10-10 15:39:37","22512"
"A3UVW94KB9UBAJ","caus_thomas_fire_v3","38YMOXR4MU0VJ0WDH6SJZ89R9D86WG","5","0","0","0","1","0",,"5316","2017-10-10 15:39:40","22513"
"A3E3OELJKHW58C","caus_thomas_fire_v3","33OOO72IVHMS701KWS0BYOU214ZCTK","7","0","0","0","1","0",,"13185","2017-10-10 15:39:50","22514"
" A3L2FPKRD46FRW
","caus_thomas_fire_v3","3X87C8JFV6CVM1YOCAWG8ONX30MSQG","4","0","0","0","1","0",,"55506","2017-10-10 15:39:55","22515"
"A1W8V6QS65FT1E","caus_thomas_fire_v3","3VNL7UK1XFKZACLUNUQC6UF5YITTFG","8","0","0","0","1","0",,"10100","2017-10-10 15:40:02","22516"
"AQXAQCJFY2ZA7","caus_thomas_fire_v3","3AAPLD8UCCIJO8C0IKEC9FRIEX6THE","6","0","0","0","1","1",,"6812","2017-10-10 15:40:08","22517"
"AGNJKSH5LFKXZ","caus_thomas_fire_v3","3S4AW7T80BJ1TJG0U4S2TZ8XFFZ4L1","7","0","0","0","1","0",,"23228","2017-10-10 15:40:30","22518"
"A3D3NEQ158WUB0","caus_thomas_fire_v3","33PPO7FECVGC3ERN2CWI4NABBNVDI4","7","0","0","0","1","1",,"20189","2017-10-10 15:40:47","22519"
"ACVEFRSUAPSEQ","caus_thomas_fire_v3","32SVAV9L3FAZF46SXZYTAG0G734A34","8","0","0","0","1","0",,"12812","2017-10-10 15:40:52","22520"
"A39A7S4KY5TLW7","caus_thomas_fire_v3","3QXNC7EIPIWPTTXQM62ACNRPY9109J","4","0","0","0","1","1",,"6601","2017-10-10 15:40:54","22521"
"A17GLK8LNW9YMP
","caus_thomas_fire_v3","39GHHAVOMFSVYTS0RJGPDKV5BQU4JZ","7","0","0","0","1","1",,"22418","2017-10-10 15:41:01","22522"
"A21FPAPLNTZ3QU","caus_thomas_fire_v3","31IBVUNM9S0EN4PJSPQR7C3QV3AFVJ","4","0","0","0","1","0",,"5804","2017-10-10 15:41:20","22523"
" A3L2FPKRD46FRW
","caus_thomas_fire_v3","3X87C8JFV6CVM1YOCAWG8ONX30MSQG","7","0","0","0","1","1",,"13673","2017-10-10 15:41:24","22524"
" A26XF8O4XRL8JA","caus_thomas_fire_v3","34S6N1K2ZVKV5V4V9BCLNOH1KKLHL0","6","0","0","0","1","0",,"23796","2017-10-10 15:41:32","22525"
"A1MJX6Q6BTWA6
","caus_thomas_fire_v3","3NXNZ5RS1AY3B4XA75NJR21C6N879R","7","0","0","0","1","0",,"48775","2017-10-10 15:41:38","22526"
"A1Y8EIQPPNGVTC","caus_thomas_fire_v3","3018Q3ZVOIRRY6RU8PZPSE3WDHKAR8","7","0","0","0","1","0",,"17456","2017-10-10 15:41:38","22527"
"A2VX8B1CJXRN2","caus_thomas_fire_v3","3HSYG7LRBJZBNFNLUW3HLGKEN1IKK2","7","0","0","0","1","1",,"26587","2017-10-10 15:41:45","22528"
"A30EI064NHQEQO","caus_thomas_fire_v3","3G5W44VEU7J6LTR245I2NOSLGK3GKX","7","0","0","0","1","1",,"12358","2017-10-10 15:42:44","22529"
"A1663ENXI9EO3O","caus_thomas_fire_v3","3BWI6RSP7GAK60ORFG35JG2NXKOE78","6","0","0","0","1","0",,"5045","2017-10-10 15:42:47","22530"
"A2E6YPCJHJOLRD
","caus_thomas_fire_v3","3NC5L260MONJXKGMRD4DCK9IZADOFQ","5","0","0","0","1","0",,"8147","2017-10-10 15:43:01","22531"
"A1J0B64BYT0089","caus_thomas_fire_v3","3CFVK00FWLMF86KEDSLHQXSBB65L63","8","0","0","0","1","0",,"30995","2017-10-10 15:43:09","22532"
"A26HEELX3JRTNF","caus_thomas_fire_v3","3ZSY5X72NXCG0ALVI847T9N12YOORL","7","0","0","0","1","1",,"8373","2017-10-10 15:43:16","22533"
"A2STS26LVIO2H3","caus_thomas_fire_v3","31EUONYN2V48TH2CRS9HU6C4N41OVE","8","0","0","0","1","1",,"16103","2017-10-10 15:43:43","22534"
"AN6RFUIV4EC9","caus_thomas_fire_v3","33CID57104UGBNXWUQNJJUGR1F43LG","7","0","0","0","1","1",,"12917","2017-10-10 15:44:14","22535"
"A1S6BP97XORRKU","caus_thomas_fire_v3","32SCWG5HIH55ZRZC5KEO7E1VGG6P65","6","0","0","0","1","1",,"20215","2017-10-10 15:44:15","22536"
"A1ROEDVMTO9Y3X
","caus_thomas_fire_v3","3WEV0KO0OMT1XSUJ7OQW8PGYKM0SDG","4","0","0","0","1","1",,"25026","2017-10-10 15:44:38","22537"
"AZDA36CV0DWI1","caus_thomas_fire_v3","369J354OFDBZME6D21O1D5N3FPK6GJ","8","0","0","0","1","0",,"11395","2017-10-10 15:44:45","22538"
"A5KGXRMJ83B9O","caus_thomas_fire_v3","3C6FJU71TQUKAGHESP8A0B8NN7RYUA","8","0","0","0","1","1",,"15757","2017-10-10 15:44:46","22539"
"AP43EYS9D1Z9E","caus_thomas_fire_v3","3NVC2EB65Q00BM4VD5C9D2INAU83Y8","8","0","0","0","1","0",,"16113","2017-10-10 15:44:50","22540"
"A1KL6VGWS7GCFB","caus_thomas_fire_v3","3QIYRE09Y3IAPKM2JZPF8T5J8QQ1NO","5","0","0","0","1","1",,"2359","2017-10-10 15:44:55","22541"
"A2FBJV1VAI9SQ6","caus_thomas_fire_v3","38JBBYETQOBNND68DI5YG4ID6IYE4O","7","0","0","0","1","1",,"12420","2017-10-10 15:45:07","22542"
"A3RUUCI6HGJKNW","caus_thomas_fire_v3","3MAOD8E57QBIFL7VQSAM329KD41NXW","7","0","0","0","1","1",,"28478","2017-10-10 15:45:51","22543"
"A15CGXS3VE46GQ","caus_thomas_fire_v3","3X4MXAO0BGPO5JUX9UVHA30N50NWR5","6","0","0","0","1","1",,"17698","2017-10-10 15:45:54","22544"
"A25FZJWHOOWY3","caus_thomas_fire_v3","3ERET4BTVMAR6J4UQZCSV76YC799K0","6","0","0","0","1","1",,"14389","2017-10-10 15:46:06","22545"
"A3L3LUTEQPJN86","caus_thomas_fire_v3","3SNLUL3WO4O0AHAF9AJK636RESNULE","8","0","0","0","1","0",,"18670","2017-10-10 15:46:17","22546"
"A25FZJWHOOWY3","caus_thomas_fire_v3","3ERET4BTVMAR6J4UQZCSV76YC799K0","6","0","0","0","1","1",,"9747","2017-10-10 15:46:56","22547"
"A1KRKLRUJKQIPZ","caus_thomas_fire_v3","3W8CV64QJ2004T3MKE9VIFQ6KQ39HU","8","0","0","0","1","1",,"6350","2017-10-10 15:47:00","22548"
"A2V4OLUYD9G510","caus_thomas_fire_v3","39DD6S19JPC3QAUXYBVOA0VM7D2EZ1","8","0","0","0","1","0",,"9899","2017-10-10 15:47:13","22549"
"A1B65EVDS55AME","caus_thomas_fire_v3","3YMU66OBIN9FJ3QUYKF5AWCTO3ZGHT","5","0","0","0","1","0",,"10353","2017-10-10 15:47:16","22550"
"AVITNGX699ASH","caus_thomas_fire_v3","32RIADZISS5OXWBQEDP35LMS7984SG","7","0","0","0","1","0",,"25319","2017-10-10 15:47:20","22551"
"A1L2N1X8U8Z3W7","caus_thomas_fire_v3","3MAOD8E57QBIFL7VQSAM329KD55NX2","8","0","0","0","1","0",,"9157","2017-10-10 15:48:07","22552"
"A1NUKP1UCT2R2R","caus_thomas_fire_v3","3WS1NTTKEYDYU3O3PS22MJD017Y0FD","7","0","0","0","1","1",,"26527","2017-10-10 15:49:00","22553"
"A1T2F28RSW49J
","caus_thomas_fire_v3","3YWRV122CS05VAQWFLAG1YKLURL8U1","8","0","0","0","1","1",,"11566","2017-10-10 15:49:02","22554"
"A3RMV9ZGFJ0HHF","caus_thomas_fire_v3","3R6BYFZZP7D6RTUES4R9VX0BBEJFXN","8","0","0","0","1","1",,"23473","2017-10-10 15:49:04","22555"
"A2L55L6Z0CQOED
","caus_thomas_fire_v3","3LYA37P8IQOAUCJROJQOMD1O07CBKC","8","0","0","0","1","0",,"14453","2017-10-10 15:49:09","22556"
"AMNFU3CPH5W0L
","caus_thomas_fire_v3","3O7L7BFSHEQHVK5NY772A5SWB00EI4","4","0","0","0","1","0",,"2973","2017-10-10 15:49:39","22557"
"A104P746OKUGS6","caus_thomas_fire_v3","3RGU30DZTA9B2JH6XNGLZEC5XHGJMA","8","0","0","0","1","0",,"11434","2017-10-10 15:50:09","22558"
"A1L6X6M0Q4F5PU","caus_thomas_fire_v3","3DIP6YHAPCTO6ETAPLVBXGYI84VE8W","7","0","0","0","1","0",,"15623","2017-10-10 15:50:23","22559"
"A27PVIL93ZMY46","caus_thomas_fire_v3","3BF51CHDTVBI8ZF9KIQ2P4PDHMBH0S","8","0","0","0","1","1",,"10060","2017-10-10 15:50:40","22560"
"A3PTFE5MJV5DU1","caus_thomas_fire_v3","3WJEQKOXA83351SDAVKAMNLJ9JR1A4","8","0","0","0","1","1",,"8565","2017-10-10 15:50:54","22561"
"A74FLL2AIG261","caus_thomas_fire_v3","3NG53N1RLVKS35I0YZBMRSXMMBXP8S","8","0","0","0","1","0",,"10645","2017-10-10 15:50:58","22562"
"A1FUR4UJ0S46W6","caus_thomas_fire_v3","3VELCLL3GKKY1S9LLB620OWA6Z1F1S","8","0","0","0","1","0",,"10887","2017-10-10 15:51:31","22563"
"A2HOJ0B5A8DJVL","caus_thomas_fire_v3","338JKRMM260E9CDRCKNVEA1QQ8NHAJ","8","0","0","0","1","1",,"13653","2017-10-10 15:51:32","22564"
"A1ERMRNNR0CZ2Y","caus_thomas_fire_v3","336KAV9KYQTBQ48C95Y4USDV4G8Y2S","8","0","0","0","1","1",,"58029","2017-10-10 15:51:41","22565"
"A2P53S6010KQBL","caus_thomas_fire_v3","3OS46CRSLF0I4BW8RWNND6QD2346V2","8","0","0","0","1","0",,"9698","2017-10-10 15:51:58","22566"
"A1IPAZXZCRRDZU","caus_thomas_fire_v3","3018Q3ZVOIRRY6RU8PZPSE3WDHLRAQ","7","0","0","0","1","0",,"30173","2017-10-10 15:52:04","22567"
"A2XTKDNUT24SE1","caus_thomas_fire_v3","30IQTZXKAK7FUPFOPM8OSQD75CUX01","5","0","0","0","1","1",,"22458","2017-10-10 15:52:16","22568"
"A2M4YIC3XU2693","caus_thomas_fire_v3","3IQ1VMJRYTLLU6V8E8Z31T327VG9AM","6","0","0","0","1","1",,"15075","2017-10-10 15:52:21","22569"
"A3PVIRB9JTIZHJ","caus_thomas_fire_v3","3MD9PLUKKIF7KG7ARAY70NPVL53ZNB","7","0","0","0","1","0",,"10431","2017-10-10 15:52:23","22570"
"A1UY2W2FL9CWN","caus_thomas_fire_v3","3483FV8BEEK97KY63M3CB1T255B26Q","8","0","0","0","1","1",,"10381","2017-10-10 15:52:29","22571"
"AT0COJ1G23ZB0","caus_thomas_fire_v3","3OS46CRSLF0I4BW8RWNND6QD248V6X","7","0","0","0","1","0",,"8995","2017-10-10 15:53:15","22572"
"A2VVA21VWJ11ZW","caus_thomas_fire_v3","3TGOYF991XN3T7X9IOBLXQ2ARJHUU9","8","0","0","0","1","1",,"26943","2017-10-10 15:53:29","22573"
"A3IS28VQS5T5DE","caus_thomas_fire_v3","3U4J9857OECMZXC75P1FI8W2UND7B3","7","0","0","0","1","0",,"12362","2017-10-10 15:53:35","22574"
"A399GYOD60WD7M","caus_thomas_fire_v3","3UOUJI6MTDFVABR4NTM8HX1EL1YUX1","8","0","0","0","1","0",,"20930","2017-10-10 15:53:36","22575"
"A1P7SR0R2B60C7","caus_thomas_fire_v3","3O6CYIULED2GLBMEDOQMFEN7CZSUW8","6","0","0","0","1","1",,"33437","2017-10-10 15:53:47","22576"
"AQ3JYPAMENR8I","caus_thomas_fire_v3","3U5JL4WY5KAWTDXP8NVQ4T3KMOB4XP","6","0","0","0","1","1",,"9154","2017-10-10 15:54:02","22577"
"A1989A88L9C4FD","caus_thomas_fire_v3","3JBT3HLQF837N1JN7PBZ4CUQLK4ZP7","6","0","0","0","1","1",,"19794","2017-10-10 15:54:09","22578"
"AKQ15X3BG93GM","caus_thomas_fire_v3","3OVR4I9USPKCKGWDM90YAL7RPLO4QS","8","0","0","0","1","1",,"18874","2017-10-10 15:54:12","22579"
"A3PQYTQ44C8UQ4","caus_thomas_fire_v3","3A4TN5196KJ22RAPWYJMK5REQB9CHH","8","0","0","0","1","1",,"25324","2017-10-10 15:54:14","22580"
"AXS3UWWTNVM19","caus_thomas_fire_v3","30MVJZJNHMEWVZYC8ECGUS6LXIA9J2","8","0","0","0","1","1",,"22033","2017-10-10 15:54:23","22581"
"A1036BH0RBAF1O","caus_thomas_fire_v3","3AQF3RZ558JT8EAIRHIJVKNREAK6FK","7","0","0","0","1","0",,"11910","2017-10-10 15:54:44","22582"
" A33E92K9K76HA0","caus_thomas_fire_v3","3CP1TO84PT2DOGYSY3T7JVF29B552K","8","0","0","0","1","0",,"17127","2017-10-10 15:54:54","22583"
"A2M45YGLOWMO4N","caus_thomas_fire_v3","3M23Y66PO282CJF4X1II2J6630ES6P","8","0","0","0","1","0",,"6693","2017-10-10 15:55:13","22584"
"A2B1YSMEHN1G2K","caus_thomas_fire_v3","39OWYR0EPKSVRYKOX0DBEB7KDKEFYU","7","0","0","0","1","1",,"19126","2017-10-10 15:56:03","22585"
"A33KIELSFIQ02Q","caus_thomas_fire_v3","3ZPPDN2SLVXOKJCKUD1PXCTTSAE9EH","7","0","0","0","1","1",,"19966","2017-10-10 15:56:39","22586"
"AUHIUR1RBI7U9

AUHIUR1RBI7U9
AUHIUR1RBI7U9
AUHIUR1RBI7U9
","caus_thomas_fire_v3","36PW28KO4ZX2P2MPMJFPT74DYSWAEX","8","0","0","0","1","0",,"12979","2017-10-10 15:56:40","22587"
"A30KYQGABO7JER","caus_thomas_fire_v3","30JNVC0OR9L6WSK81GKH4AGVUQAHQR","8","0","0","0","1","1",,"183684","2017-10-10 15:56:51","22588"
"A2B6PP2KXD19N6","caus_thomas_fire_v3","3OE22WJIGIPB1EQS1FRGNP5LOYBUQ4","8","0","0","0","1","0",,"14554","2017-10-10 15:57:30","22589"
"A231ZXYHPSNUJQ","caus_thomas_fire_v3","3VAR3R6G1P2AI56ZJZY72SSWC628OV","7","0","0","0","1","1",,"17483","2017-10-10 15:57:43","22590"
"A1MT1OXZGY8RJ2
A1MT1OXZGY8RJ2
A1MT1OXZGY8RJ2
A1MT1OXZGY8RJ2","caus_thomas_fire_v3","3GS6S824SQY3QL25GNE01JVD430NWA","8","0","0","0","1","0",,"13685","2017-10-10 15:58:13","22591"
"A23437BMZ5T1FH","caus_thomas_fire_v3","3TEM0PF1Q5Y1WJA7YM7CYJAFPTED09","2","0","0","0","1","0",,"24026","2017-10-10 15:58:26","22592"
"AEQ6KLNVTRKKR","caus_thomas_fire_v3","3TS1AR6UQQFCCEONARNB1YNN9L57FL","6","0","0","0","1","0",,"9030","2017-10-10 15:58:39","22593"
"A13XR0NV702JVZ","caus_thomas_fire_v3","36AHBNMV1RDYTE6S6UILQB4Z17YYD2","6","0","0","0","1","0",,"26221","2017-10-10 15:58:44","22594"
"A3REK98S3MBVHW","caus_thomas_fire_v3","3UN61F00HWQUS0FDDT88K3NAL3LR5L","8","0","0","0","1","0",,"6587","2017-10-10 15:58:51","22595"
"A2D5U0AACT6WS1","caus_thomas_fire_v3","3EQHHY4HQST33A6ZXIEWLZ93JUA5G3","6","0","0","0","1","0",,"10972","2017-10-10 15:58:57","22596"
"A2ROL4X9I5YDQW","caus_thomas_fire_v3","37UEWGM5HT9V4IEUC66WHDAT9NH1RE","8","0","0","0","1","1",,"14701","2017-10-10 16:00:02","22597"
"A1589I6Q42EF0F","caus_thomas_fire_v3","34HJIJKLP5X4POSU88U8G86Z6D1V4B","8","0","0","0","1","0",,"27385","2017-10-10 16:00:09","22598"
"A1ZDR2UN7M92LI
A1ZDR2UN7M92LI
","caus_thomas_fire_v3","3URFVVM165JKF6RJOBATEIHPT1XZU4","6","0","0","0","1","0",,"8197","2017-10-10 16:00:16","22599"
"A372GHF0HL9NRH","caus_thomas_fire_v3","3ZDAD0O1T1EGAYCFNOWYC1FC2NSXTE","8","0","0","0","1","0",,"16954","2017-10-10 16:00:43","22600"
"A1TARNH07A75CG","caus_thomas_fire_v3","3NAPMVF0ZWGSBKCBMW84HFTY0GV72U","5","0","0","0","1","1",,"10822","2017-10-10 16:00:54","22601"
" A3NQ8Y8MGI2DQ9
","caus_thomas_fire_v3","3LOZAJ85YDEMQZI249C2BE6M2AFX2M","7","0","0","0","1","0",,"14413","2017-10-10 16:01:09","22602"
"A25R2OI9L2Q1OW","caus_thomas_fire_v3","3N8OEVH1FRRD3XTFQGN3ZEIWRA0OO6","8","0","0","0","1","0",,"41953","2017-10-10 16:01:22","22603"
"A2ZWI3WUUEQ3O1","caus_thomas_fire_v3","3CPLWGV3MO0SEPPXNC48NZN262G9N7","8","0","0","0","1","0",,"14220","2017-10-10 16:01:23","22604"
"A1XJCPE83VNDVP","caus_thomas_fire_v3","3FTYUGLFSUM0RQW8VSDOFE6662V5DU","6","0","0","0","1","0",,"18499","2017-10-10 16:02:32","22605"
"A2AVYMFZ8GZPJ4","caus_thomas_fire_v3","32SVAV9L3FAZF46SXZYTAG0G737A37","7","0","0","0","1","1",,"29831","2017-10-10 16:02:37","22606"
"A24O8U6HKPJKVA","caus_thomas_fire_v3","3CTOC39K37RSHGAJTHEWGWFF2SI7JK","7","0","0","0","1","0",,"10668","2017-10-10 16:02:53","22607"
" AJ1H9GADTU3X4
","caus_thomas_fire_v3","3JMSRU9HQIVMHQPNXE6LPUIQJ2YEV3","8","0","0","0","1","0",,"16402","2017-10-10 16:03:16","22608"
"A3GK90X2QOFR53","caus_thomas_fire_v3","33ISQZVXPPNBLJZ9A65L9EUYDJ4CC8","5","0","0","0","1","1",,"7344","2017-10-10 16:03:52","22609"
"A1IMU6GWPN1Y9D","caus_thomas_fire_v3","308Q0PEVB8E00OE6QWRGIRRLK3MI90","8","0","0","0","1","1",,"18503","2017-10-10 16:04:17","22610"
"A2BQ9UA0LIKZQ3","caus_thomas_fire_v3","3NLZY2D53PQ8IO3YS1ZFW292B7KLQ3","8","0","0","0","1","1",,"12798","2017-10-10 16:04:19","22611"
"A1UK8S8R5QYL6D","caus_thomas_fire_v3","3B1NLC6UGZX7WKOIHXNAJ5EKAUCGP1","7","0","0","0","1","0",,"18283","2017-10-10 16:05:17","22612"
"AYPOAY43REHC8","caus_thomas_fire_v3","3DI28L7YXAF6VE9PQ0MWI6BAUYQE1D","8","0","0","0","1","0",,"12654","2017-10-10 16:06:02","22613"
"A3JA70V13REP3N","caus_thomas_fire_v3","39K0FND3AHG01QE23H386F9M7UOMAZ","8","0","0","0","1","0",,"16336","2017-10-10 16:06:08","22614"
"A2YTO4EY3MNYAJ","caus_thomas_fire_v3","3VD82FOHKQPCU8WC0BEC4EOF2XMCO4","7","0","0","0","1","0",,"14251","2017-10-10 16:06:25","22615"
"A3H6KECCE83132","caus_thomas_fire_v3","3D3VGR7TA0GRELS9ZAKF56PQ77VR3W","8","0","0","0","1","1",,"19871","2017-10-10 16:06:58","22616"
"A7204W9E8IR1R","caus_thomas_fire_v3","34PGFRQONOC77VBK1PM88CEWVJVJW2","8","0","0","0","1","1",,"10094","2017-10-10 16:07:27","22617"
"AKHS2G3ES7SEB","caus_thomas_fire_v3","35BLDD71I6YKSLGJT1KYA4J8787VZQ","6","0","0","0","1","0",,"28595","2017-10-10 16:07:29","22618"
"A38KA8KXRLEM7M","caus_thomas_fire_v3","3NQL1CS15R9KNV6EXFIFWXA61E3YV2","6","0","0","0","1","1",,"20866","2017-10-10 16:07:55","22619"
"A1CWDCM0WHXQXZ","caus_thomas_fire_v3","3Z7EFSHGN9FZOHA41218NRF8E1TXCW","3","0","0","0","1","1",,"23659","2017-10-10 16:08:31","22620"
"A1DXSFFL5HZ1NX","caus_thomas_fire_v3","3I7DHKZYGN1XPAA4MY8E3E9RIFC5F6","1","0","0","0","1","0",,"12446","2017-10-10 16:08:35","22621"
"A3BJTC39BU7R4V","caus_thomas_fire_v3","3ITXP059PWKE0EUBHKC7BNBBP6XJSL","7","0","0","0","1","1",,"14604","2017-10-10 16:08:36","22622"
"A2WAOPT014BLZS","caus_thomas_fire_v3","3JV9LGBJWTFPBKCH2XAVU59U0PDOGP","8","0","0","0","1","1",,"12903","2017-10-10 16:08:38","22623"
"A8HSPSD88CUTS","caus_thomas_fire_v3","31T4R4OBOSH5924DJPXATS2KC8FC7H","8","0","0","0","1","0",,"11102","2017-10-10 16:08:42","22624"
"A1ZHX85H6OKMKK","caus_thomas_fire_v3","3Q8GYXHFEP3QMYQUVWIDV8OOL2K5CV","8","0","0","0","1","0",,"12093","2017-10-10 16:08:49","22625"
"A2EVZM8CGI7IVD","caus_thomas_fire_v3","3NVC2EB65Q00BM4VD5C9D2INAUAY35","8","0","0","0","1","1",,"10490","2017-10-10 16:08:50","22626"
"A3O80DOQTSELGG
","caus_thomas_fire_v3","32N49TQG3GJJRD8BH94ZTBSZYN1AV5","8","0","0","0","1","1",,"14399","2017-10-10 16:10:02","22627"
"AWTGJ45ZWUCHH","caus_thomas_fire_v3","3X66WABAJWJ0PVJVJZQ362BJ5YJ3GB","8","0","0","0","1","1",,"2778","2017-10-10 16:10:43","22628"
"A1X84T4EFW04GZ","caus_thomas_fire_v3","34MAJL3QP4OKDFQBOYO2XDEGFT634K","5","0","0","0","1","0",,"4445","2017-10-10 16:11:03","22629"
"AJMX1Q5WG33D7","caus_thomas_fire_v3","3HQUKB7LNFFTJZL5IQXNVWOU33GHHX","8","0","0","0","1","1",,"35274","2017-10-10 16:11:35","22630"
"A3MPRLOQP8D3DL","caus_thomas_fire_v3","32Q90QCQ1SM81FVBYASENL7934RKEN","7","0","0","0","1","0",,"15326","2017-10-10 16:11:37","22631"
"A2WQKPQT9DHBJK","caus_thomas_fire_v3","3HFNH7HEMHFSWWPXHA2ZJA4UFQUQGY","5","0","0","0","1","0",,"7146","2017-10-10 16:11:52","22632"
"A2VYC9RLAVH1W0","caus_thomas_fire_v3","3HVVDCPGTET5A32PSKI0VFML4TOYTN","0","0","0","0","1","1",,"23760","2017-10-10 16:12:16","22633"
"A2NAKIXS3DVGAA","caus_thomas_fire_v3","3IGI0VL647LVLCT3P1NQKPIR10VONR","4","0","0","0","1","1",,"4248","2017-10-10 16:13:25","22634"
"A3HNEYFOIJWPH1","caus_thomas_fire_v3","39DD6S19JPC3QAUXYBVOA0VM7CXZEF","6","0","0","0","1","0",,"6102","2017-10-10 16:13:54","22635"
"A106SIXV5AM4KT","caus_thomas_fire_v3","3SKEMFQBZ36RSELKL76EVBBNS1UK8P","8","0","0","0","1","1",,"27036","2017-10-10 16:13:55","22636"
"A1AQQFJAF8CI4H","caus_thomas_fire_v3","3IXQG4FA2TZQDG00KMZZW4N8PD1B9J","8","0","0","0","1","0",,"3821","2017-10-10 16:14:54","22637"
"A34JYXX655OR2X","caus_thomas_fire_v3","39LOEL67OS6LWGDD01EFEPULHF9833","8","0","0","0","1","0",,"13484","2017-10-10 16:14:56","22638"
"AEG93GFIOWMKV","caus_thomas_fire_v3","3DYGAII7PL9Y99IWKTSMDJIMGHNQP8","8","0","0","0","1","0",,"10524","2017-10-10 16:15:34","22639"
"A3BP890CXV4UMN","caus_thomas_fire_v3","3QECW5O0KH278FS5HID3KIOS9OLT53","8","0","0","0","1","0",,"26306","2017-10-10 16:16:30","22640"
"A3NKTB1JU5AKIW","caus_thomas_fire_v3","3AWETUDC92TF6FWJUULFVFTEZ69ZIV","5","0","0","0","1","1",,"14099","2017-10-10 16:17:15","22641"
"A10GJ2FOR16B2I","caus_thomas_fire_v3","386CSBG1OZNQZ30R5XTD7JR5LCVQ60","5","0","0","0","1","0",,"14755","2017-10-10 16:17:23","22642"
"AYZ15TKO2HGAM","caus_thomas_fire_v3","333U7HK6I9G8YPBTKUHIGOPBO3SJDW","8","0","0","0","1","1",,"11453","2017-10-10 16:17:27","22643"
"A1L5H5KX16J1LS","caus_thomas_fire_v3","3F1567XTNW6DHM2P34WPRTI7BD69QX","8","0","0","0","1","1",,"12471","2017-10-10 16:19:14","22644"
"A1M0BTI1P8MAQU","caus_thomas_fire_v3","354GIDR5ZB77XZ9DMAJHJCQWV5E00E","8","0","0","0","1","0",,"14012","2017-10-10 16:20:13","22645"
"A3J85WP15JFYW0","caus_thomas_fire_v3","3AAJC4I4FGTB1QGPCC6F7G8ECL0JZT","7","0","0","0","1","0",,"12777","2017-10-10 16:20:23","22646"
"A36Y0EW062GZM4","caus_thomas_fire_v3","3X4JMASXCMA8HMCNKQG63TMFM9B0B0","8","0","0","0","1","1",,"11171","2017-10-10 16:20:50","22647"
"AI885RNRGVIFM","caus_thomas_fire_v3","36TFCYNS44BQ5PLKNUF9YICORT1HXS","7","0","0","0","1","0",,"14832","2017-10-10 16:21:09","22648"
"A3BNQFCM7M6GY0","caus_thomas_fire_v3","3S0TNUHWKTJJE8FATQKRRYGX8SZD87","4","0","0","0","1","1",,"4867","2017-10-10 16:21:57","22649"
"A23QE7AXVD1HQK","caus_thomas_fire_v3","3I0BTBYZAXM4UU5YUIUQB4KG7IT0YF","7","0","0","0","1","0",,"14952","2017-10-10 16:21:57","22650"
"A2ZBKJCZPT4Z0V","caus_thomas_fire_v3","3C5W7UE9CFRCX3MVERVMQNKK8FWMX2","8","0","0","0","1","0",,"22893","2017-10-10 16:21:58","22651"
"A2AU6VU6WCP69V","caus_thomas_fire_v3","3VZLGYJEYLBCWALETGLGYPGTNJGXZW","7","0","0","0","1","1",,"9019","2017-10-10 16:22:08","22652"
"A21H6PJDHFR74C","caus_thomas_fire_v3","3R5F3LQFV2LP217MSPYKFCP0BFBOZI","7","0","0","0","1","1",,"60326","2017-10-10 16:22:37","22653"
"AQERSNMMM4VR0","caus_thomas_fire_v3","3KMS4QQVK2R07TV7TLCK53S9F59FK3","8","0","0","0","1","0",,"42001","2017-10-10 16:22:39","22654"
"A6VQ0UN0ETESM","caus_thomas_fire_v3","3H8DHMCCW9C399HB2FHUH3PO3STDKQ","8","0","0","0","1","1",,"22017","2017-10-10 16:22:42","22655"
"A1XNGWSER84GUX","caus_thomas_fire_v3","3NLZY2D53PQ8IO3YS1ZFW292B7NLQ6","6","0","0","0","1","0",,"21042","2017-10-10 16:22:54","22656"
"A3DKKDV1WEZLYF","caus_thomas_fire_v3","3RANCT1ZVFIOX8O3IXUQS0AM2YFBUE","8","0","0","0","1","1",,"12967","2017-10-10 16:23:24","22657"
"AYBYMDBEBK5Z","caus_thomas_fire_v3","37M28K1J0QEA0I8H0KQGQNH530WJAV","8","0","0","0","1","0",,"16354","2017-10-10 16:23:26","22658"
"A31ZMKF1XY6SFF","caus_thomas_fire_v3","3JZQSN0I3QBV57ZO3UR57B0G8OQFGY","6","0","0","0","1","1",,"15539","2017-10-10 16:23:51","22659"
"A1V008GUJ9V9VF","caus_thomas_fire_v3","3R6P78PK7KC5OCHPYEWUOFFHZX0TGM","8","0","0","0","1","0",,"10646","2017-10-10 16:24:09","22660"
"A2JLS8VHLTWVP8","caus_thomas_fire_v3","3H0W84IWBK3UOJ86OU1BOXTNYWOERD","8","0","0","0","1","0",,"9383","2017-10-10 16:25:01","22661"
"A17VJGXGBNEL9E","caus_thomas_fire_v3","3LS2AMNW5FRGO96V5TF7OJDW6CSOQQ","6","0","0","0","1","0",,"22045","2017-10-10 16:25:01","22662"
"A1QYRXQWOPKHKS","caus_thomas_fire_v3","3SEPORI8WN000XDLI6T2EH5VMY5AZ3","6","0","0","0","1","0",,"10322","2017-10-10 16:25:33","22663"
"A1D19SXPIAH7OL","caus_thomas_fire_v3","3SKRO2GZ71S9HE1ZMMXZG1OFEVR1KP","8","0","0","0","1","1",,"18395","2017-10-10 16:25:53","22664"
"A12LI6GAHU6S2H","caus_thomas_fire_v3","3JWH6J9I9SEB2I4ULWI4E5ISU2JBNJ","8","0","0","0","1","1",,"9559","2017-10-10 16:25:53","22665"
"AVFHRN0S32V2H","caus_thomas_fire_v3","3L4D84MILZTPA5GV6Q087949GVKHJ2","4","0","0","0","1","1",,"17286","2017-10-10 16:26:14","22666"
"ANN4ZX752U5WW","caus_thomas_fire_v3","3EFE17QCRC6I98ZLTK9MZAVWCEZSHV","8","0","0","0","1","0",,"45024","2017-10-10 16:27:00","22667"
"A1DBCHREMYNOVT
","caus_thomas_fire_v3","3ATTHHXXWAPQ1KW4TCXUYUD3R6GXI1","8","0","0","0","1","1",,"30402","2017-10-10 16:27:01","22668"
"A26ZENZ5G8AEGM","caus_thomas_fire_v3","36PW28KO4ZX2P2MPMJFPT74DYS1AE2","8","0","0","0","1","1",,"13211","2017-10-10 16:28:15","22669"
"AM8OWAW9TUVLN","caus_thomas_fire_v3","38YMOXR4MU0VJ0WDH6SJZ89R9DC6WK","6","0","0","0","1","0",,"11310","2017-10-10 16:28:37","22670"
"A168QBUOKNFWWK","caus_thomas_fire_v3","3IOEN3P9S7K2IZGAKI3Y6IJXD0716K","7","0","0","0","1","1",,"16597","2017-10-10 16:28:55","22671"
"AFYE3UJTTZRHL","caus_thomas_fire_v3","3P4MQ7TPPXD919FXI6DVNAIYDD9BBY","7","0","0","0","1","0",,"15473","2017-10-10 16:30:12","22672"
"A30MP4LXV4MIFD","caus_thomas_fire_v3","31HQ4X3T3SBKV4IBK5OKR2O3TV9LSW","7","0","0","0","1","1",,"12349","2017-10-10 16:31:07","22673"
"A154A1OVHFBDER","caus_thomas_fire_v3","3SUWZRL0MYE120AMW6YDD22R29BE6G","6","0","0","0","1","0",,"11925","2017-10-10 16:31:34","22674"
"A1FVGVBZ27Q11J
","caus_thomas_fire_v3","3UN61F00HWQUS0FDDT88K3NAL3QR5Q","6","0","0","0","1","0",,"20405","2017-10-10 16:32:12","22675"
"A229AL88SNZJS7
","caus_thomas_fire_v3","388U7OUMF72VXTTCGN2W38RJ4VE0RD","8","0","0","0","1","1",,"9847","2017-10-10 16:32:31","22676"
"A3U2UNSYDPS933","caus_thomas_fire_v3","3R6BYFZZP7D6RTUES4R9VX0BBEJXF5","8","0","0","0","1","0",,"10337","2017-10-10 16:33:03","22677"
"A33QX0QXEX943S","caus_thomas_fire_v3","3FIJLY1B6U51IKSN6DHS1KE89FHFP6","7","0","0","0","1","0",,"7811","2017-10-10 16:33:16","22678"
"A321R316NU0866","caus_thomas_fire_v3","30LSNF239UWP04T75NC184J7EXH2IX","8","0","0","0","1","1",,"16855","2017-10-10 16:33:38","22679"
"A4JU6ZFL8C1VG","caus_thomas_fire_v3","31LM9EDVOLTHK1269OVLCT1527RNJF","7","0","0","0","1","1",,"10262","2017-10-10 16:33:41","22680"
"A1UDLO1L1A4O44","caus_thomas_fire_v3","3EWIJTFFVO86OPO7UHIW41S0P6QE0G","8","0","0","0","1","1",,"20420","2017-10-10 16:34:22","22681"
"A1M5BJTQIXCM33","caus_thomas_fire_v3","3IJXV6UZ1XK64OASKDR29CRFQPXRI1","7","0","0","0","1","0",,"8765","2017-10-10 16:36:02","22682"
"A1Q6IR9E7MW3BM
","caus_thomas_fire_v3","3EFE17QCRC6I98ZLTK9MZAVWCE1HSM","8","0","0","0","1","0",,"12936","2017-10-10 16:36:32","22683"
"AIDWWRWBP7304","caus_thomas_fire_v3","3XM0HYN6NK09C6SRB2XMJ2T8XE2PEY","8","0","0","0","1","1",,"27437","2017-10-10 16:38:13","22684"
"A2CW8CQCOPMCYA","caus_thomas_fire_v3","3XC1O3LBOSNLA4VQ95TA17KPVEOTLU","8","0","0","0","1","0",,"13047","2017-10-10 16:38:33","22685"
"A31BO9NWS3PW78","caus_thomas_fire_v3","3DY46V3X3PJ5NDHFGMV5H2IETL355S","4","0","0","0","1","0",,"9334","2017-10-10 16:38:36","22686"
"A2XU1TSQD45EB4","caus_thomas_fire_v3","3FFJ6VRIL1PI4UQTQ08NPGQSHZY0IC","7","0","0","0","1","0",,"11128","2017-10-10 16:39:11","22687"
"A391XEEZC675S","caus_thomas_fire_v3","3CN4LGXD5XPLTINZDJHSN7ATOUBY4V","8","0","0","0","1","0",,"9951","2017-10-10 16:39:32","22688"
"A3ESZWJBD8M1Z","caus_thomas_fire_v3","30MVJZJNHMEWVZYC8ECGUS6LXIEJ9G","8","0","0","0","1","1",,"10242","2017-10-10 16:39:33","22689"
"ASBCU0AE1U4XE","caus_thomas_fire_v3","3JJVG1YBEBY7CTYOHWMIKOI63HP5BT","6","0","0","0","1","0",,"79989","2017-10-10 16:40:16","22690"
"A3BPF5TQJ9RQAZ","caus_thomas_fire_v3","3AMYWKA6YBNNERNBQK19IEW56BJ6OE","8","0","0","0","1","1",,"13702","2017-10-10 16:40:40","22691"
"AS3YLN1NMQ3T9","caus_thomas_fire_v3","3ZGVPD4G6TI5FTCUO6KJ9MVNANXTZE","8","0","0","0","1","0",,"16759","2017-10-10 16:42:49","22692"
"A151IWEMV5XRTA","caus_thomas_fire_v3","3BC8WZX3V3XJXNDBA0LBN4S6DLHRR6","8","0","0","0","1","1",,"39855","2017-10-10 16:42:59","22693"
"A2H26E9XKQPQYJ","caus_thomas_fire_v3","3KV0LJBBH2MS070J5SPU15YW7YIMRD","8","0","0","0","1","1",,"11504","2017-10-10 16:43:07","22694"
"A34CBV74LOV6E3","caus_thomas_fire_v3","3I33IC7ZWF3AUMA9TZKOR6VO1PEA23","6","0","0","0","1","1",,"17405","2017-10-10 16:44:35","22695"
"A1HXV7Q1SYGJEW","caus_thomas_fire_v3","3GNA64GUZE5UGZ0D0EJ8FDD5PHR5Q6","8","0","0","0","1","1",,"9600","2017-10-10 16:45:00","22696"
"AQSXK4ZTUKT0V","caus_thomas_fire_v3","3WOKGM4L71HS0G1WOVLS9DMET8Y0O8","8","0","0","0","1","0",,"9049","2017-10-10 16:45:08","22697"
"A21KXWKFWGBCZ3","caus_thomas_fire_v3","31Z0PCVWUKGMVJ6O5BS0I22O0UL7T1","5","0","0","0","1","0",,"5734","2017-10-10 16:45:22","22698"
"A2BR4ASLXH925X","caus_thomas_fire_v3","3LRKMWOKB5IBVUIH5R0N8ZMXAAL2ZW","8","0","0","0","1","1",,"11072","2017-10-10 16:45:29","22699"
"A326O3VWP8TO8N","caus_thomas_fire_v3","37UQDCYH6XW18BADA6SFJKQ9XFZV73","6","0","0","0","1","1",,"12280","2017-10-10 16:46:23","22700"
"AI4AO0O0WIJF7","caus_thomas_fire_v3","3CFVK00FWLMF86KEDSLHQXSBB6F6LY","8","0","0","0","1","0",,"12807","2017-10-10 16:46:41","22701"
" A29CKVKSYJXIQ0","caus_thomas_fire_v3","3FFJ6VRIL1PI4UQTQ08NPGQSHZYI0U","6","0","0","0","1","1",,"14353","2017-10-10 16:46:59","22702"
"A33B85TN97HQ33","caus_thomas_fire_v3","3JV9LGBJWTFPBKCH2XAVU59U0PNGOR","8","0","0","0","1","1",,"11577","2017-10-10 16:47:27","22703"
"A24PTBOBOPCO6J","caus_thomas_fire_v3","39RP059MEHU5K0JU9V341QTSPCGMB1","6","0","0","0","1","0",,"11277","2017-10-10 16:47:44","22704"
"A1F1OZ54G177D8","caus_thomas_fire_v3","3FFJ6VRIL1PI4UQTQ08NPGQSHZZI0V","7","0","0","0","1","0",,"13853","2017-10-10 16:49:19","22705"
"AQ9QT3L1WGEPO","caus_thomas_fire_v3","3NAPMVF0ZWGSBKCBMW84HFTY0H9275","7","0","0","0","1","0",,"9639","2017-10-10 16:50:12","22706"
"A15J1TJ75G35SR","caus_thomas_fire_v3","3NQL1CS15R9KNV6EXFIFWXA61E9VY5","8","0","0","0","1","0",,"15272","2017-10-10 16:50:15","22707"
"A3A5A9IS2UQD6T","caus_thomas_fire_v3","3ZR9AIQJUBAOWNRE5B6JVFG9CHY04Y","7","0","0","0","1","1",,"101455","2017-10-10 16:50:37","22708"
"A3B8TTNEL2OCAB","caus_thomas_fire_v3","3R6BYFZZP7D6RTUES4R9VX0BBETFXX","8","0","0","0","1","0",,"12555","2017-10-10 16:52:01","22709"
"A1H42TSU79JTOW","caus_thomas_fire_v3","3ZQIG0FLQEHGYQBEIE0RB0PQQ6AVW7","7","0","0","0","1","0",,"27301","2017-10-10 16:52:05","22710"
"A3I7G2JAKO15P7","caus_thomas_fire_v3","3AMW0RGHOD3D6C5441059PNHB62NPK","8","0","0","0","1","1",,"13375","2017-10-10 16:52:59","22711"
"A18G2CLYSTENK","caus_thomas_fire_v3","3G0WWMR1UVLY6O6J4EFU9UDRG2JNQ6","5","0","0","0","1","1",,"8341","2017-10-10 16:53:07","22712"
"A15ARPVW8RQHP6","caus_thomas_fire_v3","3K4J6M3CXEU09GIGSE5DTAPPB8KGAT","8","0","0","0","1","1",,"56448","2017-10-10 16:53:25","22713"
"A2IGYNJ7P2JEW5","caus_thomas_fire_v3","3YJ6NA41JBHHNMEJP38DGI602M0JPF","7","0","0","0","1","1",,"13055","2017-10-10 16:53:27","22714"
"A228GVGMLLZ9R6","caus_thomas_fire_v3","336YQZE83VF3VK2L8LCRY4T0FGVM51","5","0","0","0","1","0",,"8035","2017-10-10 16:53:36","22715"
"A1DFR9MQCHWMQ6","caus_thomas_fire_v3","37U1UTWH9VNDFIYFBRFBWNX1NTVR8W","7","0","0","0","1","0",,"9427","2017-10-10 16:54:06","22716"
"A87D3K9YVKTQ7","caus_thomas_fire_v3","3KOPY89HM83AGX9WR5B63F3ZXQ4J3Z","5","0","0","0","1","0",,"4256","2017-10-10 16:54:14","22717"
"A15XX0WDRG29E7","caus_thomas_fire_v3","34T446B1C0FRRR4TYQC1EDSX4UA0C6","8","0","0","0","1","0",,"11826","2017-10-10 16:54:32","22718"
"A1CLS2A8N4D5G","caus_thomas_fire_v3","3YT88D1N08Z5RHFE9QBI4U3CCF9K34","7","0","0","0","1","0",,"13379","2017-10-10 16:54:52","22719"
"A2WVH84QT97HX2","caus_thomas_fire_v3","3R2UR8A0IAH0X677R7AZIR9P3FFXOW","6","0","0","0","1","1",,"1606","2017-10-10 16:55:46","22720"
"ACPZ5IHCZF700
","caus_thomas_fire_v3","3E13VNJ1NNWIBJBBMJCN3L92MR6I1Z","8","0","0","0","1","0",,"13067","2017-10-10 16:56:35","22721"
"A1HN4550TIXQBZ","caus_thomas_fire_v3","3B837J3LDOXVY2DOPPLGDEX2ZNVSRQ","8","0","0","0","1","0",,"5933","2017-10-10 16:57:20","22722"
"AVKQVRV8810ZK","caus_thomas_fire_v3","3PH3VY7DJLYX7AGOJBPUW62MEHHZWC","7","0","0","0","1","1",,"29112","2017-10-10 16:57:36","22723"
"A2M9D02CIVECE3","caus_thomas_fire_v3","3OUYGIZWR7ZALGDX3VY7YDR43DW0PR","8","0","0","0","1","1",,"8212","2017-10-10 16:58:55","22724"
"A3V9SIYFMP74QP","caus_thomas_fire_v3","3ZAK8W07I4FNDLLTKHX18JE3BUO0UN","7","0","0","0","1","0",,"21888","2017-10-10 16:59:36","22725"
"A2UKE5M4IZP49P","caus_thomas_fire_v3","3EJPLAJKEMHZDV1ISTCQYC39QFO6ZI","8","0","0","0","1","0",,"14177","2017-10-10 17:00:38","22726"
"A26L7403RHRQP8","caus_thomas_fire_v3","3JMSRU9HQIVMHQPNXE6LPUIQJ27EVC","6","0","0","0","1","0",,"8255","2017-10-10 17:01:25","22727"
" A35ZVO654GOBP5
","caus_thomas_fire_v3","3H8DHMCCW9C399HB2FHUH3PO3SSKDW","8","0","0","0","1","1",,"20058","2017-10-10 17:02:12","22728"
"A3I98QLYJ40MRZ","caus_thomas_fire_v3","3W2LOLRXLBGXAJ0GKGCEMS6SITQKR9","8","0","0","0","1","0",,"27266","2017-10-10 17:03:09","22729"
"A39YBLQYIUBR76","caus_thomas_fire_v3","3S96KQ6I9M52CS7YWOVMIUCKM5PDT1","6","0","0","0","1","1",,"16681","2017-10-10 17:04:36","22730"
"APFUNYI4230OK","caus_thomas_fire_v3","3U088ZLJVKU05PAYFHC2Q7Z0WA00WN","8","0","0","0","1","0",,"16927","2017-10-10 17:05:54","22731"
"A2JU5NWJUAQVL7","caus_thomas_fire_v3","3SKEMFQBZ36RSELKL76EVBBNS13K8Y","3","0","0","0","1","1",,"14719","2017-10-10 17:09:01","22732"
"A2MKXI4KCRRI7Y","caus_thomas_fire_v3","3JMSRU9HQIVMHQPNXE6LPUIQJ21EV6","8","0","0","0","1","1",,"16420","2017-10-10 17:09:10","22733"
"AVJUIF9QHQRY8","caus_thomas_fire_v3","3N4BPTXIO8TPQBSXOA7JR3TCPSVKUE","8","0","0","0","1","1",,"26077","2017-10-10 17:09:38","22734"
"A1NT8BT94ME6F5","caus_thomas_fire_v3","32Q90QCQ1SM81FVBYASENL79340EKQ","4","0","0","0","1","0",,"9509","2017-10-10 17:11:56","22735"
"A2ZGAH6NOSU2PO","caus_thomas_fire_v3","3HRMW88U16R40DGKBF6FH9X9Y8JM0F","8","0","0","0","1","1",,"11491","2017-10-10 17:12:23","22736"
"A2LH24MZKYTF1G","caus_thomas_fire_v3","3SEPORI8WN000XDLI6T2EH5VMYGZA3","8","0","0","0","1","1",,"10917","2017-10-10 17:12:53","22737"
"A2KD06NTTFYD1Y","caus_thomas_fire_v3","337RC3OW0530NWZFE0TP2P8ASZALV8","7","0","0","0","1","1",,"11868","2017-10-10 17:13:16","22738"
"AQVXVMX61864S
","caus_thomas_fire_v3","354P56DE9K4LGJT9GBNA8X62YB97SE","2","0","0","0","1","1",,"1964","2017-10-10 17:14:24","22739"
"A4HNS81WU3KY1
","caus_thomas_fire_v3","3YZ8UPK3VTN77DG9WXQL3KG4KJNCUU","8","0","0","0","1","1",,"11909","2017-10-10 17:14:45","22740"
"A2M9EE6KTM8F8I
","caus_thomas_fire_v3","3ZY8KE4ISJ4BETFS651LJB7425RVQ1","7","0","0","0","1","0",,"11851","2017-10-10 17:16:24","22741"
"AL6DWYE72TPK2
","caus_thomas_fire_v3","3OUYGIZWR7ZALGDX3VY7YDR43DZ0PU","6","0","0","0","1","0",,"13376","2017-10-10 17:18:30","22742"
"A3VVR8NR3ED04C","caus_thomas_fire_v3","37QW5D2ZRGNPGXYSQGFGMX2X9VBS8I","6","0","0","0","1","1",,"6268","2017-10-10 17:18:37","22743"
"A255ELJ8FE59P","caus_thomas_fire_v3","3M1CVSFP606RM5CUVAAPNOTRHVXAQM","8","0","0","0","1","0",,"27484","2017-10-10 17:18:54","22744"
"ABVLH4KP7DKNV","caus_thomas_fire_v3","34V1S5K3GS2K74J5OVIRLO1GBC3696","5","0","0","0","1","1",,"20508","2017-10-10 17:20:50","22745"
"A21STU4Z97J2Z6","caus_thomas_fire_v3","36DSNE9QZ5ZZ2M2IA3VYRI1ASH8OJ7","8","0","0","0","1","0",,"21189","2017-10-10 17:21:01","22746"
"A21BXRUD15TQL8","caus_thomas_fire_v3","3TVRFO09GKGSRL4AEFU7QA5V8AJLXC","6","0","0","0","1","0",,"10777","2017-10-10 17:21:18","22747"
"A1CBQFYSOA203K","caus_thomas_fire_v3","3TYCR1GOTCKHWG4PFXISNVL6GAHLZ9","7","0","0","0","1","0",,"8490","2017-10-10 17:21:24","22748"
"A2873IWWYUPLSP","caus_thomas_fire_v3","3U5JL4WY5KAWTDXP8NVQ4T3KMOL4XZ","8","0","0","0","1","0",,"9993","2017-10-10 17:21:47","22749"
"A3X7AOXQHS025","caus_thomas_fire_v3","3PDJHANYK5HDMA1OM76JY5Z4UPBH67","7","0","0","0","1","1",,"41834","2017-10-10 17:22:04","22750"
"A3BFAVF5ZJ52ZA","caus_thomas_fire_v3","3QY7M81QH7NNS0G1B2E8HBFSHHZK7D","8","0","0","0","1","1",,"17756","2017-10-10 17:22:42","22751"
"AFFRVQ2ZRY1A3","caus_thomas_fire_v3","3CPLWGV3MO0SEPPXNC48NZN262SN9X","8","0","0","0","1","0",,"19091","2017-10-10 17:23:00","22752"
"AEHONA1BIY9JB","caus_thomas_fire_v3","3IFS6Q0HJIKI53A5Z2R7ZMWBCRLISL","5","0","0","0","1","1",,"5259","2017-10-10 17:24:49","22753"
"AEK67RC8DN148","caus_thomas_fire_v3","33CID57104UGBNXWUQNJJUGR1FIL3C","6","0","0","0","1","0",,"12841","2017-10-10 17:24:56","22754"
"AUCHGHY1IKZZK","caus_thomas_fire_v3","3X65QVEQI0O4ONTFNJYKCXKL7SVLCA","5","0","0","0","1","0",,"1612","2017-10-10 17:25:01","22755"
"A1D4I1QYL9713I","caus_thomas_fire_v3","3QHK8ZVMIMJLEI199J2P1DE3P7VLB3","8","0","0","0","1","1",,"10202","2017-10-10 17:25:27","22756"
"A1YBUA89N9CV2N","caus_thomas_fire_v3","336YQZE83VF3VK2L8LCRY4T0FG05MP","6","0","0","0","1","1",,"10399","2017-10-10 17:26:05","22757"
"A2ZA6GLQTIF345","caus_thomas_fire_v3","3G5W44VEU7J6LTR245I2NOSLGKJGKD","8","0","0","0","1","0",,"16709","2017-10-10 17:28:46","22758"
"A384FUI8JZVGZM","caus_thomas_fire_v3","3QJOXOW4XJS3R3VEJM5U2YZDS9ZME7","7","0","0","0","1","0",,"10802","2017-10-10 17:28:49","22759"
"ALL5YYZDJ4FB2","caus_thomas_fire_v3","3MTMREQS4VJW628G7J9VFDBD5WBWA9","5","0","0","0","1","1",,"28274","2017-10-10 17:29:21","22760"
"A2MSVKXC1F3WIU","caus_thomas_fire_v3","3A7Y0R2P2OPMWVGABUIUAVS34LFJX9","7","0","0","0","1","1",,"11424","2017-10-10 17:30:48","22761"
"A3VDFWL4MI3KPA","caus_thomas_fire_v3","3A1COHJ8NJW0QOKCFM3HIJVV0K2H8U","8","0","0","0","1","0",,"6657","2017-10-10 17:32:50","22762"
"A3CPZZNZDLFL6Z","caus_thomas_fire_v3","3FFJ6VRIL1PI4UQTQ08NPGQSHZ5I01","5","0","0","0","1","0",,"2608","2017-10-10 17:33:22","22763"
"A1G746AO9F06KW","caus_thomas_fire_v3","31QNSG6A5RU3XZE02DH5R661MH678I","7","0","0","0","1","1",,"10675","2017-10-10 17:33:55","22764"
"A221JJK7P6K22W","caus_thomas_fire_v3","3EO896NRAWWFFE7Q6KHXLS7XRPRJTQ","7","0","0","0","1","1",,"79259","2017-10-10 17:33:57","22765"
"A1A3TGZ7DKJWRW","caus_thomas_fire_v3","3WRFBPLXRAP6ZN0H633YWMKG6AFN3D","8","0","0","0","1","1",,"9681","2017-10-10 17:37:30","22766"
"A2V4PRG5UBNIX0","caus_thomas_fire_v3","3MX2NQ3YC9VEPW1PMSE09L9YMKFX5W","7","0","0","0","1","1",,"12180","2017-10-10 17:47:08","22767"
"AFMH601P0QVUK","caus_thomas_fire_v3","3U088ZLJVKU05PAYFHC2Q7Z0WA30WQ","8","0","0","0","1","0",,"36387","2017-10-10 17:49:17","22768"
"A3UV55HC87DO9C","caus_thomas_fire_v3","31HQ4X3T3SBKV4IBK5OKR2O3TVHLS4","5","0","0","0","1","0",,"3560","2017-10-10 17:53:05","22769"
"A2NT3OQZUUZPEO","caus_thomas_fire_v3","3RJSC4XJ10V6S6VEJGPT07MNCDV055","6","0","0","0","1","1",,"10712","2017-10-10 17:55:22","22770"
"A2STXZFG083AAB","caus_thomas_fire_v3","34HJIJKLP5X4POSU88U8G86Z6DKV4U","8","0","0","0","1","1",,"11619","2017-10-10 17:55:48","22771"
"A18B8EAII8NXJ0","caus_thomas_fire_v3","3I33IC7ZWF3AUMA9TZKOR6VO1PKA29","8","0","0","0","1","0",,"11564","2017-10-10 17:55:51","22772"
"A13EAXH33AS0IK","caus_thomas_fire_v3","3WRFBPLXRAP6ZN0H633YWMKG6AO3N2","8","0","0","0","1","0",,"15632","2017-10-10 18:03:21","22773"
"A3NUYAG56BPYBB","caus_thomas_fire_v3","3TXWC2NHNZRPU2H2V8LUMTX8T10S9E","7","0","0","0","1","1",,"13352","2017-10-10 18:08:22","22774"
"A19KJKSZZAIDO","caus_thomas_fire_v3","3WOKGM4L71HS0G1WOVLS9DMET8BO09","4","0","0","0","1","0",,"12458","2017-10-10 18:29:18","22775"
"A1FOETNZPX6EE7","caus_thomas_fire_v3","37W3JXSD669X2K6JNPNBIZTK8NOYWV","8","0","0","0","1","1",,"30580","2017-10-10 18:42:14","22776"
