"subject","version","assignmentId","rating","question_ind","trial_ind","focal_high","alt_high","alt2_high","greenSecond","rt","stamp","id"
"A2UO3QJZNC2VOE","caus_thomas_fire_v4","3AAJC4I4FGTB1QGPCC6F7G8ECRJJZO","6","0","0","0","1","0",,"4987","2017-10-11 15:49:03","22779"
"A1EBVJWBNNPUFU","caus_thomas_fire_v4","3ERMJ6L4DYTIIOG4WEROWO7W6S1M73","8","0","0","0","1","1",,"9242","2017-10-11 15:49:15","22780"
"A1B3B409V58ACB","caus_thomas_fire_v4","3OJSZ2ATDSXKAHVY4FA2FMWAKXB75Y","8","0","0","0","1","1",,"23371","2017-10-11 15:49:19","22781"
"A1LB9JOMFQ1UMG","caus_thomas_fire_v4","3IHR8NYAM72RK4VYMWL9AGHHKVM4PX","8","0","0","0","1","0",,"18519","2017-10-11 15:49:28","22782"
"A2R794P3E8X0MK","caus_thomas_fire_v4","37UEWGM5HT9V4IEUC66WHDAT9T0R1Z","8","0","0","0","1","1",,"13376","2017-10-11 15:49:30","22783"
"A35DS4T8H1MWYD","caus_thomas_fire_v4","3Z4GS9HPNVBZXL9HS8PZD6A6B3677D","8","0","0","0","1","1",,"15188","2017-10-11 15:49:41","22784"
"AY52II1OC5RZ1","caus_thomas_fire_v4","31N2WW6R9RRUBVN08FKLOHB74P3F3K","6","0","0","0","1","1",,"16687","2017-10-11 15:49:47","22785"
"A32QBXDPHHSTOD","caus_thomas_fire_v4","33F859I566EJSMIJIYNR9LLW8WTHBB","8","0","0","0","1","0",,"11433","2017-10-11 15:49:49","22786"
"A2Z2OV7QGU10QN","caus_thomas_fire_v4","337RC3OW0530NWZFE0TP2P8AS5ILVS","8","0","0","0","1","1",,"9871","2017-10-11 15:49:52","22787"
"A31Q4HFUPE2DXG","caus_thomas_fire_v4","32VNZTT0A75CWHBDZOPYFBHWLDA4RP","7","0","0","0","1","1",,"7435","2017-10-11 15:49:53","22788"
"A273DS7TQWR9M1","caus_thomas_fire_v4","33SA9F9TRXVZWFPSNOBHBW14QHJEW8","8","0","0","0","1","0",,"13173","2017-10-11 15:49:55","22789"
"A3IADAHNMIS0AM","caus_thomas_fire_v4","39KFRKBFINWPXBXHW3W115GY5RPOYL","8","0","0","0","1","0",,"8380","2017-10-11 15:49:57","22790"
"A159MC0L7J302O","caus_thomas_fire_v4","3VFJCI1K4Z0S8X4XUPRZO0EZBIJRGZ","8","0","0","0","1","1",,"13783","2017-10-11 15:49:59","22791"
"AAJ9TP0YJ9OQ3","caus_thomas_fire_v4","36TFCYNS44BQ5PLKNUF9YICORZHHXK","8","0","0","0","1","0",,"10311","2017-10-11 15:50:00","22792"
"ARB80JPV0HQ5O","caus_thomas_fire_v4","3A7Y0R2P2OPMWVGABUIUAVS34RLJXR","8","0","0","0","1","1",,"13982","2017-10-11 15:50:06","22793"
"A3UCP8QT39UC3","caus_thomas_fire_v4","3KGTPGBS6XMU9VO7Z41FR77I8YIU2N","5","0","0","0","1","1",,"8185","2017-10-11 15:50:17","22794"
"A2VQ1WGHLLLNJ1","caus_thomas_fire_v4","3EO896NRAWWFFE7Q6KHXLS7XRVXJT8","4","0","0","0","1","0",,"13282","2017-10-11 15:50:24","22795"
"AMKEGABQMZYIK","caus_thomas_fire_v4","3NL0RFNU0FOQ9DYI94G1EZVIQLGK4C","6","0","0","0","1","0",,"16464","2017-10-11 15:50:30","22796"
"A1IP7MXZ9M7KOF","caus_thomas_fire_v4","3WMINLGALB4NS42BQS9U3J4ADM3AC0","6","0","0","0","1","1",,"17707","2017-10-11 15:50:31","22797"
"A36Z98CBRZQ2AA","caus_thomas_fire_v4","3BXQMRHWKZZKGZS09MKZ6GLGE3ZUME","7","0","0","0","1","1",,"8853","2017-10-11 15:50:32","22798"
"A299CU7U9QX3E7","caus_thomas_fire_v4","3AAPLD8UCCIJO8C0IKEC9FRIE3THT1","7","0","0","0","1","0",,"13197","2017-10-11 15:50:35","22799"
"A21UA6O7ZFAIQJ","caus_thomas_fire_v4","31T4R4OBOSH5924DJPXATS2KCEXC7B","6","0","0","0","1","0",,"14852","2017-10-11 15:50:43","22800"
"A1IWJS2NY2FAE","caus_thomas_fire_v4","33LKR6A5KEL8KXRMGVBRHSBBXEX1TM","8","0","0","0","1","1",,"11780","2017-10-11 15:50:47","22801"
"A1UX9EWSK062A9","caus_thomas_fire_v4","339ANSOTR53KHKXXUTI58051V3HKIR","0","0","0","0","1","1",,"19243","2017-10-11 15:50:47","22802"
"A10GZ0SWBZIRBK","caus_thomas_fire_v4","32SCWG5HIH55ZRZC5KEO7E1VGMSP63","8","0","0","0","1","0",,"10417","2017-10-11 15:50:50","22803"
"A27ZE20JZ3VDUP","caus_thomas_fire_v4","358UUM7WRZ49F4TW1MN5IN16CF0R7W","5","0","0","0","1","0",,"2099","2017-10-11 15:50:53","22804"
"A35JZAZK1L9D3Z","caus_thomas_fire_v4","3OSWBBLG1EY9T9GI1YWJ7XXQZ7OXDR","6","0","0","0","1","1",,"11088","2017-10-11 15:50:54","22805"
"A2AGDF3VY0L1QP","caus_thomas_fire_v4","3O6CYIULED2GLBMEDOQMFEN7C5DUW5","8","0","0","0","1","1",,"4773","2017-10-11 15:50:59","22806"
"A34B40D60FQY9Y","caus_thomas_fire_v4","3NAPMVF0ZWGSBKCBMW84HFTY0NK72X","8","0","0","0","1","0",,"13948","2017-10-11 15:51:01","22807"
"A1LL9TE7T53Y1P","caus_thomas_fire_v4","373ERPL3YO9WD2Q3EPQ6NJTO1CRRT8","8","0","0","0","1","1",,"19641","2017-10-11 15:51:04","22808"
"A39C210BKD7YNN","caus_thomas_fire_v4","3NS0A6KXC491AOQO46LCA3GYKZ2ZG0","7","0","0","0","1","1",,"17464","2017-10-11 15:51:09","22809"
"A36CZ0F88ELFWF","caus_thomas_fire_v4","3M23Y66PO282CJF4X1II2J6636ZS6M","8","0","0","0","1","1",,"15425","2017-10-11 15:51:10","22810"
"APJJ1HHD2GGFS
","caus_thomas_fire_v4","3OLF68YTN92UVGMLHUZVBPPDAZVFAG","8","0","0","0","1","1",,"12160","2017-10-11 15:51:13","22811"
"A3EEMZ0K3T47QZ","caus_thomas_fire_v4","3X31TUMD7XNK1KJH7M90V11U31B1LJ","7","0","0","0","1","0",,"8030","2017-10-11 15:51:15","22812"
"A1CUK9RG3RW1DY","caus_thomas_fire_v4","36V4Q8R5ZK1SO6LJSD0UWFORBITMQ1","8","0","0","0","1","1",,"18035","2017-10-11 15:51:20","22813"
"AHTJJ0KDJ6ZIA","caus_thomas_fire_v4","39JEC7537U27KS591N0QZ6INYW4CV3","6","0","0","0","1","0",,"18780","2017-10-11 15:51:23","22814"
"AM4RUMMB8CE8L","caus_thomas_fire_v4","3Z7EFSHGN9FZOHA41218NRF8E7CXCR","8","0","0","0","1","1",,"16264","2017-10-11 15:51:23","22815"
"A3MVQVS782U9SG","caus_thomas_fire_v4","3R2UR8A0IAH0X677R7AZIR9P3LVXOO","6","0","0","0","1","0",,"2435","2017-10-11 15:51:32","22816"
"AI9NJ89EXVDY1","caus_thomas_fire_v4","35BLDD71I6YKSLGJT1KYA4J87EQZVP","8","0","0","0","1","0",,"12063","2017-10-11 15:51:34","22817"
"A1E94U14N16SYJ","caus_thomas_fire_v4","3LKC68YZ3A4L862HH2EDG8VIUJPWOU","6","0","0","0","1","0",,"13309","2017-10-11 15:51:37","22818"
"A3CV0AEQ8HOJ0U","caus_thomas_fire_v4","39U1BHVTDLS4U0513ZPA5LQ8VYBT36","6","0","0","0","1","1",,"3234","2017-10-11 15:51:38","22819"
"A362C46X7UDVNC","caus_thomas_fire_v4","3IKZ72A5B4H1FZGAQY40XV9D96UFN0","8","0","0","0","1","0",,"20543","2017-10-11 15:51:46","22820"
"A2UNSF09FWX9S8","caus_thomas_fire_v4","358010RM5EUVNQG4SJWDDJ3XZESXVQ","0","0","0","0","1","0",,"11263","2017-10-11 15:51:50","22821"
"A36LW3J7QKZ5CT","caus_thomas_fire_v4","3SPJ0334214BW06KGQ4WT9ZC6XFJYX","8","0","0","0","1","1",,"9405","2017-10-11 15:51:52","22822"
"A144N9R7W4H67O","caus_thomas_fire_v4","3QHK8ZVMIMJLEI199J2P1DE3PD2LBM","8","0","0","0","1","0",,"13995","2017-10-11 15:51:56","22823"
"A1UOFT5Y9A87KA","caus_thomas_fire_v4","324G5B4FB39LFA9X794QYR0J3P1077","8","0","0","0","1","0",,"17587","2017-10-11 15:52:10","22824"
"A36XEP5H6KBQIB","caus_thomas_fire_v4","3A0EX8ZRN8P5EH88SYRFVLGZYS6YBR","8","0","0","0","1","0",,"12151","2017-10-11 15:52:12","22825"
"A23TGEQ4CG90PA","caus_thomas_fire_v4","3QAVNHZ3EM5GV8WH352T62UX7VHLAR","8","0","0","0","1","1",,"24355","2017-10-11 15:52:12","22826"
"AA7IXIG89RV1V","caus_thomas_fire_v4","3LOZAJ85YDEMQZI249C2BE6M2GZX2I","8","0","0","0","1","1",,"20661","2017-10-11 15:52:13","22827"
"A17V85U8PXS4LJ","caus_thomas_fire_v4","3EQHHY4HQST33A6ZXIEWLZ93J0V5G0","7","0","0","0","1","1",,"9480","2017-10-11 15:52:18","22828"
"A3SBDWO5M0G2L0","caus_thomas_fire_v4","3YZ8UPK3VTN77DG9WXQL3KG4KPVUCW","8","0","0","0","1","1",,"19976","2017-10-11 15:52:19","22829"
"A2TTRW1EE029C7
A2TTRW1EE029C7","caus_thomas_fire_v4","3AAJC4I4FGTB1QGPCC6F7G8ECRJZJ4","8","0","0","0","1","1",,"28265","2017-10-11 15:52:21","22830"
"A1PZ1YZAQEXRSQ","caus_thomas_fire_v4","33LKR6A5KEL8KXRMGVBRHSBBXEXT1E","8","0","0","0","1","1",,"12044","2017-10-11 15:52:23","22831"
"A1K8E6PV2GPJ3Q","caus_thomas_fire_v4","3I3WADAZ9Q5RVNNXL1R4Q8I5AMM5ON","8","0","0","0","1","1",,"11131","2017-10-11 15:52:23","22832"
"A2PCUGTDC57PJI","caus_thomas_fire_v4","378XPAWRUCEE57OBI25GEM25QRNIAA","2","0","0","0","1","0",,"25930","2017-10-11 15:52:27","22833"
"A2T5CROJ0FWIJY","caus_thomas_fire_v4","3G0WWMR1UVLY6O6J4EFU9UDRG83NQ2","8","0","0","0","1","1",,"8754","2017-10-11 15:52:28","22834"
" A2DJQD3KQYBUMB
 A2DJQD3KQYBUMB
","caus_thomas_fire_v4","3FE7TXL1LIO2H2HQIVHAH6AT5DD2QR","5","0","0","0","1","0",,"14066","2017-10-11 15:52:29","22835"
"A3HPPDI53JMPW","caus_thomas_fire_v4","3PPTZCWALQLSNDK272QO4HK0QMBZQV","6","0","0","0","1","0",,"23957","2017-10-11 15:52:30","22836"
" A3NLJS5TGM8ZST","caus_thomas_fire_v4","3DZQRBDBSLG3F0SMEZKKVGUMTFXS3G","8","0","0","0","1","0",,"16012","2017-10-11 15:52:30","22837"
"A1MVPAAPFIWETH","caus_thomas_fire_v4","3KJYX6QCM9CUS6BFBFHCMAVIOGDVJ0","6","0","0","0","1","1",,"11262","2017-10-11 15:52:39","22838"
"AWE9A4ZOP9LNU
","caus_thomas_fire_v4","3U5JL4WY5KAWTDXP8NVQ4T3KMUW4XM","8","0","0","0","1","1",,"14073","2017-10-11 15:52:40","22839"
"ALM8YFO0272UR","caus_thomas_fire_v4","3I02618YA07Q12PD12CRNKFBJ8APU5","8","0","0","0","1","0",,"9011","2017-10-11 15:52:41","22840"
"AKSQ73RWZ9428","caus_thomas_fire_v4","3570Y55XZPK15YGJ8KJTWW7WE5YYG8","8","0","0","0","1","1",,"10065","2017-10-11 15:52:42","22841"
"A34F2ESTZYTWRM","caus_thomas_fire_v4","336KAV9KYQTBQ48C95Y4USDV4MTY2P","8","0","0","0","1","0",,"22814","2017-10-11 15:52:50","22842"
"A3FA8CP9DMTB1P","caus_thomas_fire_v4","3IKZ72A5B4H1FZGAQY40XV9D96UNF8","8","0","0","0","1","1",,"17144","2017-10-11 15:52:54","22843"
"A2PLPSH6IW00IA","caus_thomas_fire_v4","3X31TUMD7XNK1KJH7M90V11U31BL13","8","0","0","0","1","1",,"12300","2017-10-11 15:52:55","22844"
"A2NTS2HNDOLRCR","caus_thomas_fire_v4","3DR23U6WE5F74YLYSJ66OCU5MN1TEX","8","0","0","0","1","0",,"8124","2017-10-11 15:52:59","22845"
"A1R0689JPSQ3OF","caus_thomas_fire_v4","3LQ8PUHQFLTTFUWPO8F8V8P93MDIHL","8","0","0","0","1","0",,"14586","2017-10-11 15:52:59","22846"
"AHV4U78TUUDKI","caus_thomas_fire_v4","3R6P78PK7KC5OCHPYEWUOFFHZ3GTGE","8","0","0","0","1","0",,"11133","2017-10-11 15:53:05","22847"
"A2C6KUVF0FAIY8","caus_thomas_fire_v4","30BUDKLTXDW5JWA8RNO8LWOR6KG5EJ","6","0","0","0","1","1",,"16026","2017-10-11 15:53:05","22848"
"A5PORDD6QMIE8","caus_thomas_fire_v4","3OS46CRSLF0I4BW8RWNND6QD2ATV6U","8","0","0","0","1","1",,"12090","2017-10-11 15:53:06","22849"
"A2ZV96GRXVSXK4","caus_thomas_fire_v4","3S0TNUHWKTJJE8FATQKRRYGX8YG8DV","8","0","0","0","1","1",,"7452","2017-10-11 15:53:09","22850"
"ATADQXPHL10Y8","caus_thomas_fire_v4","39LNWE0K4UXYKG29O7M7ENEZXUFUIY","6","0","0","0","1","0",,"8820","2017-10-11 15:53:13","22851"
"A3TYWTLNIKKD29","caus_thomas_fire_v4","3UOUJI6MTDFVABR4NTM8HX1EL7JUXY","8","0","0","0","1","0",,"14560","2017-10-11 15:53:17","22852"
"A3VM1B415Z17Y8","caus_thomas_fire_v4","3QL2OFSM96JUCNW0ZWEZPPOACT2CNM","5","0","0","0","1","1",,"14355","2017-10-11 15:53:17","22853"
"AUZBKS5UI3MXB","caus_thomas_fire_v4","3TU5ZICBRD2D3HJFYCQBRXNWRD4Q8H","8","0","0","0","1","1",,"9446","2017-10-11 15:53:19","22854"
"A1RK314J53UKIN","caus_thomas_fire_v4","39O5D9O87TTN8J3QHDUKGBQ47CC3CY","7","0","0","0","1","0",,"21010","2017-10-11 15:53:20","22855"
"A2U7BMG19Q83GE","caus_thomas_fire_v4","3EJPLAJKEMHZDV1ISTCQYC39QLZZ6Y","5","0","0","0","1","0",,"5442","2017-10-11 15:53:23","22856"
"A328WBNP9A8KBO
","caus_thomas_fire_v4","3X3OR7WPZZ12CK3267IFABO2H7I8LB","6","0","0","0","1","0",,"10263","2017-10-11 15:53:24","22857"
"AZPXXTHW5SL8Y","caus_thomas_fire_v4","3L0KT67Y8EH4V3PA3KDALAQZ2GSYSS","8","0","0","0","1","0",,"8627","2017-10-11 15:53:26","22858"
"A1QVNF19XSRSD7","caus_thomas_fire_v4","3Q8GYXHFEP3QMYQUVWIDV8OOL82C5W","3","0","0","0","1","0",,"3061","2017-10-11 15:53:28","22859"
"A33ZB4QX4Y96WN","caus_thomas_fire_v4","3K2755HG5S4STNPX14QX1QXJV2TDFH","3","0","0","0","1","1",,"3937","2017-10-11 15:53:29","22860"
"a1wmojnu4ffqy8","caus_thomas_fire_v4","3QXNC7EIPIWPTTXQM62ACNRPYFP09J","8","0","0","0","1","1",,"19139","2017-10-11 15:53:32","22861"
"A1QEQOI98976S0","caus_thomas_fire_v4","35BLDD71I6YKSLGJT1KYA4J87EQVZL","8","0","0","0","1","0",,"12470","2017-10-11 15:53:34","22862"
"A9WGDBDXUNLOD","caus_thomas_fire_v4","37Z929RLG998EHQGTEQBDTYKNEATSY","8","0","0","0","1","0",,"8646","2017-10-11 15:53:38","22863"
"A2LGSV2MKHWA49","caus_thomas_fire_v4","39U1BHVTDLS4U0513ZPA5LQ8VYC3TH","8","0","0","0","1","0",,"25305","2017-10-11 15:53:44","22864"
"A3MJSYSWX0Q4WQ","caus_thomas_fire_v4","3FDJT1UU74985W2IN9ZBJR1WQHC5K3","8","0","0","0","1","0",,"11980","2017-10-11 15:53:45","22865"
"AAR5VQ8QIO5PC","caus_thomas_fire_v4","31QTRG6Q2TE7IB9IB39GQ5LOFWLYPC","7","0","0","0","1","1",,"15765","2017-10-11 15:53:50","22866"
"A2S6QOCFC3EAYH","caus_thomas_fire_v4","374TNBHA8BWSINAXBGO5QABYKS7YQ3","8","0","0","0","1","0",,"12760","2017-10-11 15:53:52","22867"
"A1U4W67HW5V0FO","caus_thomas_fire_v4","32ZKVD547FO4YEBK3DYP5RKMPRC3BR","8","0","0","0","1","1",,"18556","2017-10-11 15:53:53","22868"
"A1Y3IPBBZQTWR2
","caus_thomas_fire_v4","3WJEQKOXA83351SDAVKAMNLJ9PD1A2","8","0","0","0","1","1",,"12617","2017-10-11 15:53:56","22869"
"A1LK30EUILW9QH","caus_thomas_fire_v4","3GM6G9ZBKNY5GMDB9HUP1KZEVPSTMM","8","0","0","0","1","1",,"13629","2017-10-11 15:53:56","22870"
"A3JDWMS5QJHREI","caus_thomas_fire_v4","3018Q3ZVOIRRY6RU8PZPSE3WDN7AR7","6","0","0","0","1","0",,"24387","2017-10-11 15:54:01","22871"
"A2F3NS6UP6GTS4","caus_thomas_fire_v4","3TMSXRD2X610CEVGB0G24CIA18FW17","8","0","0","0","1","1",,"13355","2017-10-11 15:54:06","22872"
"A28LOT01MYVYYJ","caus_thomas_fire_v4","3PW9OPU9PQLE0YX9XGRVG52LX1L12V","0","0","0","0","1","0",,"18881","2017-10-11 15:54:07","22873"
"A1ZIIU5H8A40Z3","caus_thomas_fire_v4","3DIP6YHAPCTO6ETAPLVBXGYI8AH8EO","8","0","0","0","1","1",,"17666","2017-10-11 15:54:09","22874"
"A3RGAY76J7MAZA","caus_thomas_fire_v4","37UEWGM5HT9V4IEUC66WHDAT9T11RA","8","0","0","0","1","0",,"11589","2017-10-11 15:54:13","22875"
"A197FECF831H95","caus_thomas_fire_v4","3AMYWKA6YBNNERNBQK19IEW56HX6O4","6","0","0","0","1","1",,"10410","2017-10-11 15:54:15","22876"
"A2C4R0TBPZGWTD","caus_thomas_fire_v4","30X31N5D63R3ZLR7NEZUIO8SZPQASV","8","0","0","0","1","1",,"12629","2017-10-11 15:54:15","22877"
"A30NX5HEQGGFPP
","caus_thomas_fire_v4","30LB5CDZNCB4ZKF3Q4W9PBTIDIDZ0X","8","0","0","0","1","1",,"7688","2017-10-11 15:54:16","22878"
"A2TKGUJXGAL13U","caus_thomas_fire_v4","3QAPZX2QN4EET9CR1XNV20JBS9F20T","7","0","0","0","1","1",,"10307","2017-10-11 15:54:18","22879"
"A3S7I1TRSRWO73","caus_thomas_fire_v4","30BXRYBRP4YBGPGUDPJNWZYHIXBWH6","-1","0","0","0","1","1",,"15983","2017-10-11 15:54:20","22880"
"A15HCM2AMX95Z9","caus_thomas_fire_v4","3QRYMNZ7FYIBY4YBLI9PEZOE0F2NTG","8","0","0","0","1","0",,"29824","2017-10-11 15:54:26","22881"
"A3KYFEDDBCFQU1","caus_thomas_fire_v4","32M8BPYGATNFFY1E42XQA8D8OM1GIL","8","0","0","0","1","1",,"11623","2017-10-11 15:54:31","22882"
"A1HCTAULAAOC8A","caus_thomas_fire_v4","3BF51CHDTVBI8ZF9KIQ2P4PDHSWH0P","8","0","0","0","1","1",,"12141","2017-10-11 15:54:37","22883"
"A2UH8NYAK4PCGJ","caus_thomas_fire_v4","31JLPPHS2UVOH80T7I3BBBKLWQV3OV","8","0","0","0","1","0",,"23713","2017-10-11 15:54:38","22884"
"A1IWRYUOVXAB0Z","caus_thomas_fire_v4","3RUIQRXJBBPXRRNL0WRJFGA817HLLA","8","0","0","0","1","1",,"12444","2017-10-11 15:54:41","22885"
"A3CMGKHSBTC2XQ","caus_thomas_fire_v4","3P1L2B7AD1Q5XCQIDO7B7XE2WCMLOR","7","0","0","0","1","1",,"7317","2017-10-11 15:54:43","22886"
"A1C66QKNXGH895","caus_thomas_fire_v4","3UWN2HHPUY6AJ4LWWI4Z4USSYWONSR","8","0","0","0","1","0",,"12259","2017-10-11 15:54:49","22887"
"ALOX6TS3BTQ7W","caus_thomas_fire_v4","3TXD01ZLD4I4C93U3IK3KM4GSCEU4J","8","0","0","0","1","1",,"46258","2017-10-11 15:54:50","22888"
"A25N0K40JAZTN1","caus_thomas_fire_v4","3K5TEWLKGVCYXVR9TXWCA9GIB1PIVC","8","0","0","0","1","0",,"12858","2017-10-11 15:54:54","22889"
"AUDADS1HJVX6V","caus_thomas_fire_v4","3RKNTXVS3MZKX0PWXD3CKLSML9N4AI","8","0","0","0","1","0",,"12522","2017-10-11 15:55:03","22890"
"A14F6ZMFA960GN","caus_thomas_fire_v4","35GMH2SV3EIRR6GQW2K7U2OINFLOE7","8","0","0","0","1","1",,"13098","2017-10-11 15:55:04","22891"
"A38R7SIVV118KT","caus_thomas_fire_v4","3JCG6DTRV3RJ9LJBK67BDO8WLJQQQS","8","0","0","0","1","0",,"16046","2017-10-11 15:55:06","22892"
"A1NDSEXBYNOUOS","caus_thomas_fire_v4","3NLZY2D53PQ8IO3YS1ZFW292BD3QL3","7","0","0","0","1","0",,"16104","2017-10-11 15:55:06","22893"
"A3DA81ZFKYYGFC","caus_thomas_fire_v4","39GAF6DQWR1NXPVBLQB6IAZWUZE1V3","8","0","0","0","1","0",,"24661","2017-10-11 15:55:06","22894"
"A2GBV3YLSRW4SH","caus_thomas_fire_v4","3ZQIG0FLQEHGYQBEIE0RB0PQQCMWVW","6","0","0","0","1","0",,"36825","2017-10-11 15:55:08","22895"
"A21V515QXW2NTP","caus_thomas_fire_v4","3DI28L7YXAF6VE9PQ0MWI6BAU4BE1A","8","0","0","0","1","1",,"16535","2017-10-11 15:55:10","22896"
"A1OZPLHNIU1519","caus_thomas_fire_v4","3NLZY2D53PQ8IO3YS1ZFW292BD4LQZ","7","0","0","0","1","1",,"17563","2017-10-11 15:55:13","22897"
"A345I15D5LHTE7","caus_thomas_fire_v4","3P4MQ7TPPXD919FXI6DVNAIYDJPBBQ","0","0","0","0","1","1",,"16990","2017-10-11 15:55:18","22898"
"A23SGBJULXN5DO","caus_thomas_fire_v4","3X1FV8S5JXSK14LE39W9PX32WOXGVI","6","0","0","0","1","1",,"7925","2017-10-11 15:55:20","22899"
"A9AGWXBGQV61L","caus_thomas_fire_v4","3GFK2QRXX9IZ0WWZCNIE72VRDOL5WZ","8","0","0","0","1","0",,"15544","2017-10-11 15:55:20","22900"
"A3KHOW5FW32RUL","caus_thomas_fire_v4","3VP0C6EFSGXZEO2ZD4MWQA70BHI6MP","8","0","0","0","1","0",,"19825","2017-10-11 15:55:24","22901"
"A1VHFF2VC2XG7P","caus_thomas_fire_v4","3F6HPJW4JD171ZDCU4GG9VSFTETW2O","8","0","0","0","1","1",,"10998","2017-10-11 15:55:29","22902"
"ALDQRWYZ8KQ9A","caus_thomas_fire_v4","3JMSRU9HQIVMHQPNXE6LPUIQJ8HEVY","5","0","0","0","1","1",,"27077","2017-10-11 15:55:32","22903"
"AB66CTVQ90RCV","caus_thomas_fire_v4","34Q075JO1XE74OUVITNHXH9603110B","0","0","0","0","1","1",,"4508","2017-10-11 15:55:38","22904"
"AKQWJ8Y1TMHX0
","caus_thomas_fire_v4","3KYQYYSHYV8MZ02Q079NOK6XN3KODE","8","0","0","0","1","1",,"13370","2017-10-11 15:55:38","22905"
"A3BWMHCJ8RELKW","caus_thomas_fire_v4","3E337GFOL997TZC51IAIFG9PALVGN1","8","0","0","0","1","0",,"15860","2017-10-11 15:55:43","22906"
"A36X88GMB65A9H","caus_thomas_fire_v4","3P4RDNWND57P60RFC8IT7L5OGEIJIS","8","0","0","0","1","0",,"9864","2017-10-11 15:55:47","22907"
"A3KUZ2JNKHZBQK","caus_thomas_fire_v4","308XBLVESI5WHGWME3ZLNPN2V5SBR3","8","0","0","0","1","1",,"11053","2017-10-11 15:55:56","22908"
"A7ARLVESOUAOL","caus_thomas_fire_v4","3ZPPDN2SLVXOKJCKUD1PXCTTSGZE9J","8","0","0","0","1","0",,"15908","2017-10-11 15:55:59","22909"
"AMNRYECHXZY34","caus_thomas_fire_v4","3YW4XOSQKQMNKA6BG011MOXDGS51UE","8","0","0","0","1","1",,"10458","2017-10-11 15:56:03","22910"
"A1NYI79LUIBOTP","caus_thomas_fire_v4","338JKRMM260E9CDRCKNVEA1QQE9HAH","8","0","0","0","1","1",,"11030","2017-10-11 15:56:08","22911"
"AXEXQBM7B2QT9","caus_thomas_fire_v4","3YGXWBAF70I8QFMUHRZ3QGIALC84CK","8","0","0","0","1","0",,"21151","2017-10-11 15:56:09","22912"
"A18E19QXO73YM4","caus_thomas_fire_v4","3YW4XOSQKQMNKA6BG011MOXDGS5U17","7","0","0","0","1","0",,"18570","2017-10-11 15:56:12","22913"
"A1PF01FF85HUY4","caus_thomas_fire_v4","3BDCF01OGXVHRQUKJBG99OC4AMLLY2","8","0","0","0","1","1",,"13822","2017-10-11 15:56:14","22914"
"A3QDBNW2H8EMFW","caus_thomas_fire_v4","3X4MXAO0BGPO5JUX9UVHA30N56AWR4","8","0","0","0","1","0",,"11674","2017-10-11 15:56:14","22915"
"A3P0P0DRSOX52W","caus_thomas_fire_v4","3WJ1OXY92AHLG1CY9GTP1X8RNVJA8V","8","0","0","0","1","0",,"16564","2017-10-11 15:56:15","22916"
"A2WLGVXAVT2XTR","caus_thomas_fire_v4","3EF8EXOTT1WE6UVH41XNFMO2ZC71JI","8","0","0","0","1","0",,"26846","2017-10-11 15:56:18","22917"
"A2TBWLOHTZNK54","caus_thomas_fire_v4","3570Y55XZPK15YGJ8KJTWW7WE5ZGYR","8","0","0","0","1","0",,"19285","2017-10-11 15:56:23","22918"
"A3P6MTDWS95QIZ","caus_thomas_fire_v4","3WAKVUDHUWH1VWLD5GIANYOQJE57UH","7","0","0","0","1","0",,"73776","2017-10-11 15:56:31","22919"
"A1NHZRAJ2UWMXC","caus_thomas_fire_v4","3ZAK8W07I4FNDLLTKHX18JE3B0ZU04","7","0","0","0","1","0",,"12477","2017-10-11 15:56:33","22920"
"A3GVIO0THJXK51","caus_thomas_fire_v4","3R3YRB5GRF4JEYJBCJUUXPQGKMBUAV","8","0","0","0","1","1",,"12275","2017-10-11 15:56:34","22921"
"A2CB7WDJ9V6VVN","caus_thomas_fire_v4","3OVHNO1VE62YY4GX2GK44ID177NDZ5","8","0","0","0","1","1",,"10970","2017-10-11 15:56:41","22922"
"AEF94JKX6FG92
","caus_thomas_fire_v4","386CSBG1OZNQZ30R5XTD7JR5LIF6QC","8","0","0","0","1","1",,"15058","2017-10-11 15:56:43","22923"
"A3K7UC7LUKV0ZV","caus_thomas_fire_v4","3LEP4MGT3G12G6DHW241I06YG41BDX","7","0","0","0","1","1",,"10308","2017-10-11 15:56:45","22924"
"A2ETY1O927Z1IF","caus_thomas_fire_v4","3O6CYIULED2GLBMEDOQMFEN7C5EWU8","8","0","0","0","1","0",,"19615","2017-10-11 15:56:47","22925"
"A1A3B77BG6NV8Y","caus_thomas_fire_v4","38BQUHLA9W1P3U83D08Q7ATRWHCOMW","8","0","0","0","1","1",,"13612","2017-10-11 15:56:50","22926"
"A3R5OYQBAM7VJU","caus_thomas_fire_v4","3TMFV4NEP8FINEF1ALPHJM5IFEM8W4","8","0","0","0","1","0",,"22873","2017-10-11 15:56:52","22927"
" AEGJR6BE1ZRK0","caus_thomas_fire_v4","3QJOXOW4XJS3R3VEJM5U2YZDSF6EMI","8","0","0","0","1","0",,"17152","2017-10-11 15:56:53","22928"
"A1KRO0JWU6LT0I","caus_thomas_fire_v4","3KIBXJ1WD5VUD680SOVASX1N7CHOKR","5","0","0","0","1","1",,"9960","2017-10-11 15:56:53","22929"
"A13M79DZ3D0ONV","caus_thomas_fire_v4","3CFJTT4SXTRWM5QDBZTW4V0FPJI7I9","7","0","0","0","1","1",,"16103","2017-10-11 15:57:07","22930"
"AM2KK02JXXW48","caus_thomas_fire_v4","32EYX73OY0ABDF5SEUGGSFFQKQZRU0","8","0","0","0","1","1",,"12922","2017-10-11 15:57:14","22931"
"A1PD0NGV29HX0W","caus_thomas_fire_v4","3S3AMIZX3U6LQB5NA20WTKCGYP1DC6","5","0","0","0","1","1",,"6164","2017-10-11 15:57:18","22932"
"A2NG2CCBMVEBIA","caus_thomas_fire_v4","31N2WW6R9RRUBVN08FKLOHB74P4F3L","7","0","0","0","1","0",,"13381","2017-10-11 15:57:26","22933"
"AMPMTF5IAAMK8","caus_thomas_fire_v4","3RSDURM96AN3LKKS2PT5WTMK1PJEY7","8","0","0","0","1","0",,"15263","2017-10-11 15:57:31","22934"
"A39SX1QZR36L7A","caus_thomas_fire_v4","33L7PJKHCGZQVXB7FGK6W2YJBK48TE","8","0","0","0","1","0",,"11842","2017-10-11 15:57:35","22935"
"A2IGPW784OFV3D","caus_thomas_fire_v4","36TFCYNS44BQ5PLKNUF9YICORZIHXL","8","0","0","0","1","0",,"16252","2017-10-11 15:57:40","22936"
"A36XTKYLP4IRDN","caus_thomas_fire_v4","3U0SRXB7CD6YIPLJHT4UEKNWCU6RN8","8","0","0","0","1","1",,"17866","2017-10-11 15:57:42","22937"
"A2WH3GIS2KF8LU","caus_thomas_fire_v4","3IRIK4HM3ALM52Q80FSINE2OH3DC6C","8","0","0","0","1","0",,"11004","2017-10-11 15:57:45","22938"
"A2WNVSJ1Y06SS1","caus_thomas_fire_v4","3IX2EGZR7BK2ZZUY2VC2LD6F3A0JRV","8","0","0","0","1","1",,"18702","2017-10-11 15:57:52","22939"
"A1APYLD4DUK33J","caus_thomas_fire_v4","317HQ483I7TLPQI0R6AL0SM5PYMNIZ","4","0","0","0","1","1",,"10810","2017-10-11 15:57:54","22940"
"A1PX1LSJZM3RIP","caus_thomas_fire_v4","3A4TN5196KJ22RAPWYJMK5REQHUCHE","8","0","0","0","1","1",,"10644","2017-10-11 15:57:54","22941"
"A1HSNNF773HGA3","caus_thomas_fire_v4","3TS1AR6UQQFCCEONARNB1YNN9RQF7Q","7","0","0","0","1","1",,"10395","2017-10-11 15:57:55","22942"
"A18SXC3JEN1O0U","caus_thomas_fire_v4","3VA45EW49NOS75MEKEPSNI5OY6G1O0","8","0","0","0","1","0",,"24311","2017-10-11 15:58:08","22943"
"A2RQCEOZ90CNW8","caus_thomas_fire_v4","3B837J3LDOXVY2DOPPLGDEX2ZTERSK","8","0","0","0","1","0",,"17886","2017-10-11 15:58:17","22944"
"A3A4EIML2KVC3D","caus_thomas_fire_v4","30LSNF239UWP04T75NC184J7E3VI23","7","0","0","0","1","1",,"16726","2017-10-11 15:58:18","22945"
"A26JIHKBORI9X","caus_thomas_fire_v4","3KJYX6QCM9CUS6BFBFHCMAVIOGEVJ1","8","0","0","0","1","0",,"11143","2017-10-11 15:58:18","22946"
"A2UG68DTOFPQCO","caus_thomas_fire_v4","3YOH7BII098P3QHXT0HONPVV35EVK0","7","0","0","0","1","0",,"10922","2017-10-11 15:58:19","22947"
"A2J5N770I859WE","caus_thomas_fire_v4","32XVDSJFPZYBWNJYQ2AT0XQOVCH2M5","7","0","0","0","1","1",,"6767","2017-10-11 15:58:22","22948"
"A20O44S26VN11P","caus_thomas_fire_v4","31UV0MXWNQDHZ1CUN6EZ6BMJYDN5IS","0","0","0","0","1","1",,"4481","2017-10-11 15:58:25","22949"
"AKLO9X26LN7K9","caus_thomas_fire_v4","37TD41K0AHARS0O57SVLOJYGZSBSCF","8","0","0","0","1","1",,"12107","2017-10-11 15:58:30","22950"
"AU2JTDU6K61SW","caus_thomas_fire_v4","3A7Y0R2P2OPMWVGABUIUAVS34RMJXS","8","0","0","0","1","1",,"25552","2017-10-11 15:58:30","22951"
"A3ACR8IG31Q7K6","caus_thomas_fire_v4","35BLDD71I6YKSLGJT1KYA4J87ERVZM","8","0","0","0","1","0",,"10163","2017-10-11 15:58:31","22952"
"AUQKB1JCWXY0N","caus_thomas_fire_v4","3WMOAN2SRBYQBW20QD94FHCZX0JVN5","8","0","0","0","1","0",,"13184","2017-10-11 15:58:39","22953"
"AOQC2B77YF8ON","caus_thomas_fire_v4","34X6J5FLPTZ2NYFYPGN2GNWA7OYJQU","8","0","0","0","1","0",,"13475","2017-10-11 15:58:41","22954"
"A3V91O71V32QEC","caus_thomas_fire_v4","3X0H8UUIT1P06YUAOJVM0D5JR8TSWO","8","0","0","0","1","0",,"13977","2017-10-11 15:58:43","22955"
"A9TGK24RHVMJ0","caus_thomas_fire_v4","3U4J9857OECMZXC75P1FI8W2UTYB74","8","0","0","0","1","0",,"18412","2017-10-11 15:58:59","22956"
"A2UCO1QAJ36RQ9","caus_thomas_fire_v4","3F6KKYWMNB24HF2EZS9A9V6SXTFDNO","8","0","0","0","1","1",,"8997","2017-10-11 15:59:05","22957"
"AW20BA38TBP8O","caus_thomas_fire_v4","37TD41K0AHARS0O57SVLOJYGZSBCSZ","7","0","0","0","1","1",,"13124","2017-10-11 15:59:09","22958"
"A3MGDESST43KVZ","caus_thomas_fire_v4","35LDD5557A56D3NOF8GX0TCICC2KM8","7","0","0","0","1","0",,"28516","2017-10-11 15:59:13","22959"
"AJH2N4RI8WA6U","caus_thomas_fire_v4","3DY46V3X3PJ5NDHFGMV5H2IETRH55I","8","0","0","0","1","0",,"14425","2017-10-11 15:59:16","22960"
"AKI542SCRCXYE","caus_thomas_fire_v4","39GAF6DQWR1NXPVBLQB6IAZWUZEV1X","8","0","0","0","1","0",,"26383","2017-10-11 15:59:19","22961"
"A2D3TXA2QAVPXW","caus_thomas_fire_v4","3VD82FOHKQPCU8WC0BEC4EOF238CO2","8","0","0","0","1","1",,"12242","2017-10-11 15:59:34","22962"
"APGX2WZ59OWDN","caus_thomas_fire_v4","38F5OAUN5NDWQAFT5HBB4JZ0P62H7P","7","0","0","0","1","0",,"9567","2017-10-11 15:59:38","22963"
"A134Z0KUOMR8CW","caus_thomas_fire_v4","3OVR4I9USPKCKGWDM90YAL7RPR9Q4B","0","0","0","0","1","1",,"17744","2017-10-11 15:59:49","22964"
"AWJDPT6Z7P23Z","caus_thomas_fire_v4","3VZLGYJEYLBCWALETGLGYPGTNPZXZR","8","0","0","0","1","1",,"21274","2017-10-11 15:59:56","22965"
"A14KLRLU81XEJT","caus_thomas_fire_v4","3M0NZ3JDP1Z3UR14NA2L66P9UQQ5ZQ","0","0","0","0","1","0",,"17916","2017-10-11 16:00:08","22966"
"A3PUU1XU4C1A3V","caus_thomas_fire_v4","3X4JMASXCMA8HMCNKQG63TMFMFT0BU","7","0","0","0","1","0",,"17285","2017-10-11 16:00:11","22967"
"ANMXMEB55AGM6","caus_thomas_fire_v4","3PEIJLRY6TU82FG9IT19ZLMB6NUWXZ","8","0","0","0","1","0",,"16246","2017-10-11 16:00:17","22968"
"  A2SYTRKH1JWJO5
A2SYTRKH1JWJO5
 ","caus_thomas_fire_v4","3W2LOLRXLBGXAJ0GKGCEMS6SIZ1KRW","6","0","0","0","1","1",,"15224","2017-10-11 16:00:17","22969"
"A3C9PTN49QTVFN","caus_thomas_fire_v4","3U8YCDAGXPHVLSEC38DWYIHE8FSQ0U","8","0","0","0","1","0",,"15136","2017-10-11 16:00:17","22970"
"A1TOHQNC01HNO8","caus_thomas_fire_v4","3WI0P0II61TPWDU6SZQRIFB2YQ4DRC","6","0","0","0","1","1",,"8337","2017-10-11 16:00:20","22971"
"A35RT6VWT56F30","caus_thomas_fire_v4","3T3IWE1XG6OW11B31A16ITJJ5QQQT7","8","0","0","0","1","1",,"12045","2017-10-11 16:00:23","22972"
"A3IFHO3DXO4P3","caus_thomas_fire_v4","3Q5ZZ9ZEVOGOAV0HEK28TMS5VHJ85O","8","0","0","0","1","1",,"13472","2017-10-11 16:00:25","22973"
"A3V4AW6DGWBHDO","caus_thomas_fire_v4","3SLE99ER0NE5J7IDOKTY9SP14MBZBK","8","0","0","0","1","0",,"16437","2017-10-11 16:00:30","22974"
"ANOXV36AE49EO","caus_thomas_fire_v4","35BLDD71I6YKSLGJT1KYA4J87ERZVQ","8","0","0","0","1","1",,"9221","2017-10-11 16:00:41","22975"
"A2VDGWD0BBMSP2","caus_thomas_fire_v4","3JNQLM5FT4NRQ51DQQ9E0KBZV7QL2L","8","0","0","0","1","0",,"15041","2017-10-11 16:00:42","22976"
"A1PE5AT62CBGS4","caus_thomas_fire_v4","3HMIGG0U4L7MCJA1PM754JQYQMMY8T","6","0","0","0","1","1",,"17468","2017-10-11 16:00:44","22977"
"AKV6XRTJXAL3R","caus_thomas_fire_v4","351SEKWQS0IYZXHENRUAWGHSS36DMP","8","0","0","0","1","0",,"10548","2017-10-11 16:00:46","22978"
"A3TJZE4HBUGR3G","caus_thomas_fire_v4","3RYC5T2D73UYLAXWX8HMI9SRC97PR2","8","0","0","0","1","0",,"31054","2017-10-11 16:00:51","22979"
"A2PIGYNXTTCFZO","caus_thomas_fire_v4","33FOTY3KEMMRYGPBU9G1SIB79SZ1C5","7","0","0","0","1","1",,"14403","2017-10-11 16:00:55","22980"
"A1EH9BPKYXFBS5","caus_thomas_fire_v4","345LHZDEDXTJUDKQ34FKAHCAECIU3Y","8","0","0","0","1","1",,"12312","2017-10-11 16:00:58","22981"
"ATHS9GUME1XCA","caus_thomas_fire_v4","351SEKWQS0IYZXHENRUAWGHSS34MDW","2","0","0","0","1","1",,"8211","2017-10-11 16:01:00","22982"
"A3S300T3IVQ2GC","caus_thomas_fire_v4","3OVR4I9USPKCKGWDM90YAL7RPR84QO","8","0","0","0","1","1",,"8403","2017-10-11 16:01:09","22983"
"A3B6G6FKCF0KKI","caus_thomas_fire_v4","3G2UL9A02DFGTLVC9YK77SAAGSO76G","8","0","0","0","1","0",,"11569","2017-10-11 16:01:17","22984"
"A135O3T299Y0F4","caus_thomas_fire_v4","323Q6SJS8IH953UZN09NSBCHNULFHR","6","0","0","0","1","0",,"24751","2017-10-11 16:01:18","22985"
"A2YGAEODJ5SSF6","caus_thomas_fire_v4","32RIADZISS5OXWBQEDP35LMS7FT4SD","8","0","0","0","1","1",,"15048","2017-10-11 16:01:33","22986"
"A6WEN12IM5OR4","caus_thomas_fire_v4","3A0EX8ZRN8P5EH88SYRFVLGZYS8BY6","8","0","0","0","1","0",,"15752","2017-10-11 16:01:59","22987"
"A2EGMXKAJH1204","caus_thomas_fire_v4","34X6J5FLPTZ2NYFYPGN2GNWA7OZJQV","1","0","0","0","1","1",,"47752","2017-10-11 16:02:01","22988"
"A37GUFW4K6A1C8","caus_thomas_fire_v4","3YMU66OBIN9FJ3QUYKF5AWCTO9NHGU","8","0","0","0","1","0",,"15188","2017-10-11 16:02:31","22989"
"A6ORRFI3XOACA","caus_thomas_fire_v4","3J88R45B2GZII6J867NE7REFDQRPXX","4","0","0","0","1","1",,"44534","2017-10-11 16:02:48","22990"
"A1KWJ1MMFJB515","caus_thomas_fire_v4","34YB12FSQYP1BHR5PHVI21KP5VMMG8","8","0","0","0","1","1",,"16992","2017-10-11 16:03:04","22991"
"AA2CEYHBFO8IH","caus_thomas_fire_v4","37UQDCYH6XW18BADA6SFJKQ9XLEV7U","8","0","0","0","1","1",,"16232","2017-10-11 16:03:08","22992"
"A3UQ982VZ9PRXO","caus_thomas_fire_v4","32EYX73OY0ABDF5SEUGGSFFQKQ0UR4","6","0","0","0","1","1",,"7906","2017-10-11 16:03:25","22993"
"A302XVT4U66ETU","caus_thomas_fire_v4","33L7PJKHCGZQVXB7FGK6W2YJBK4T8Z","4","0","0","0","1","0",,"39722","2017-10-11 16:03:28","22994"
"A1JKSAQ8UNCE7B","caus_thomas_fire_v4","3TDXMTX3CBVDI5C8SPO4YH0JU8ZI6M","7","0","0","0","1","1",,"12944","2017-10-11 16:03:32","22995"
"A3B4cnx1GH6054","caus_thomas_fire_v4","3TXMY6UCAEPFFK9SFO6GTJJFH4RCQB","8","0","0","0","1","1",,"11125","2017-10-11 16:03:33","22996"
"A2VBNGKB2V7YRJ","caus_thomas_fire_v4","32AT8R96GLANEU55TJGLIPKM6SJUSS","4","0","0","0","1","1",,"12226","2017-10-11 16:03:43","22997"
"A2WCDQDLMC6J72","caus_thomas_fire_v4","37UQDCYH6XW18BADA6SFJKQ9XLE7V6","8","0","0","0","1","1",,"95601","2017-10-11 16:03:56","22998"
"A1Q7XRRWOUR4SQ","caus_thomas_fire_v4","3SITXWYCNVAGECIYN25DC79QWMEBX0","8","0","0","0","1","0",,"20532","2017-10-11 16:04:01","22999"
"A1QGG767E07WBA","caus_thomas_fire_v4","3IGI0VL647LVLCT3P1NQKPIR17LONV","8","0","0","0","1","0",,"21932","2017-10-11 16:04:24","23000"
"A2FI2VTA8JVYS6","caus_thomas_fire_v4","3PDJHANYK5HDMA1OM76JY5Z4UVIH6Q","2","0","0","0","1","1",,"6800","2017-10-11 16:04:28","23001"
"A36TE52PSYAAD6","caus_thomas_fire_v4","3GDTJDAPVUCMI2LN6JJUAO3RHCA8MF","8","0","0","0","1","1",,"9102","2017-10-11 16:04:31","23002"
"A2LI0QVPKA5CG8","caus_thomas_fire_v4","3COPXFW7XBDCY6K17O8PHX6DHHEPKA","8","0","0","0","1","1",,"18782","2017-10-11 16:04:32","23003"
"A2J1VDVDYZRK29","caus_thomas_fire_v4","33PPUNGG386SZEZ2KHFO97U5M8DRZO","5","0","0","0","1","1",,"2724","2017-10-11 16:04:34","23004"
"A32J0WKL5KD8C0","caus_thomas_fire_v4","3A4NIXBJ760HX95608SYFTPX1C6MLC","6","0","0","0","1","1",,"11997","2017-10-11 16:04:55","23005"
"AFZ080T4ERBLG","caus_thomas_fire_v4","3KB8R4ZV1E85SQN8YS59OL9VTWJGBE","5","0","0","0","1","1",,"8042","2017-10-11 16:04:55","23006"
"A3OB6REG5CGHK1","caus_thomas_fire_v4","3WR9XG3T63C2EYRYQARSAUQWK1G74T","4","0","0","0","1","1",,"14045","2017-10-11 16:05:01","23007"
"A3SOJWB6AZWZV9
","caus_thomas_fire_v4","3A1COHJ8NJW0QOKCFM3HIJVV0QB8H6","1","0","0","0","1","0",,"11243","2017-10-11 16:05:08","23008"
"A3DCUNG3XOASX0","caus_thomas_fire_v4","3R3YRB5GRF4JEYJBCJUUXPQGKMDAUD","8","0","0","0","1","0",,"8437","2017-10-11 16:05:13","23009"
"A1AQYFPD1RFW8P5","caus_thomas_fire_v4","3KRVW3HTZNM41M0WKHPZRF3ST6GSMY","8","0","0","0","1","1",,"13749","2017-10-11 16:05:25","23010"
"A5YVMQWA2IYPF","caus_thomas_fire_v4","3VP0C6EFSGXZEO2ZD4MWQA70BHK6MR","8","0","0","0","1","0",,"13886","2017-10-11 16:05:30","23011"
"A15281CEDIG0NZ","caus_thomas_fire_v4","34V1S5K3GS2K74J5OVIRLO1GBID69S","8","0","0","0","1","0",,"6302","2017-10-11 16:05:35","23012"
"A1CWJQCFGM8XPV","caus_thomas_fire_v4","3VW04L3ZLT7NRFLZSYXV140IFP0XXT","8","0","0","0","1","0",,"10938","2017-10-11 16:05:36","23013"
"AJRDEAYR5VZ1O","caus_thomas_fire_v4","3FFJ6VRIL1PI4UQTQ08NPGQSH5E0I4","8","0","0","0","1","1",,"14383","2017-10-11 16:05:39","23014"
"AIM3PIK90V9HX","caus_thomas_fire_v4","3IAEQB9FMELU49BSRT0X5EJJQ5LDWH","8","0","0","0","1","0",,"10446","2017-10-11 16:05:44","23015"
"A312SMN11YLE66","caus_thomas_fire_v4","3EICBYG644XYTX5FKYM7WI7T390JCS","1","0","0","0","1","1",,"5651","2017-10-11 16:05:47","23016"
"AM155T4U3RE1A","caus_thomas_fire_v4","369J354OFDBZME6D21O1D5N3FV66GH","8","0","0","0","1","0",,"10466","2017-10-11 16:05:49","23017"
"AIEJ3ECA0KG9F","caus_thomas_fire_v4","3J2UYBXQQLD2BAVSOZZYSD0N8EH60E","7","0","0","0","1","1",,"7303","2017-10-11 16:05:56","23018"
"A3NQ4ZG8PEN9X4","caus_thomas_fire_v4","3M23Y66PO282CJF4X1II2J663626S3","8","0","0","0","1","1",,"11441","2017-10-11 16:06:01","23019"
"A1AWHGAQBO77DG","caus_thomas_fire_v4","33M4IA01QG23UJZNJZR3CMEUE8HXRZ","6","0","0","0","1","0",,"13010","2017-10-11 16:06:03","23020"
"A3VOYK4UGI5BJF
","caus_thomas_fire_v4","30LB5CDZNCB4ZKF3Q4W9PBTIDIG0Z1","4","0","0","0","1","0",,"4586","2017-10-11 16:06:10","23021"
"A1QX3W0I7WJK2F","caus_thomas_fire_v4","3F0BG9B9MPOIC55IFHFZQJU3F2HY77","8","0","0","0","1","0",,"8451","2017-10-11 16:06:16","23022"
"A3P1LMYKK9MRKZ","caus_thomas_fire_v4","3NVC2EB65Q00BM4VD5C9D2INA0VY32","8","0","0","0","1","0",,"13196","2017-10-11 16:06:17","23023"
"A2BZY06YRWGEDL","caus_thomas_fire_v4","3DEL4X4EL6MCRKB9XUJXKI7RHVWXY1","8","0","0","0","1","1",,"17223","2017-10-11 16:06:18","23024"
"A20VT3EOYFC6HS","caus_thomas_fire_v4","3HMVI3QICJT41JQGQ1YQP93QCGHY1A","6","0","0","0","1","0",,"15450","2017-10-11 16:06:21","23025"
"A24WQ0ZEGXHX6J","caus_thomas_fire_v4","33LK57MYLT640TZFZ6FTZHZ18AYSZF","8","0","0","0","1","0",,"10729","2017-10-11 16:06:23","23026"
"A3NJFMC7AXV7PH","caus_thomas_fire_v4","3LEP4MGT3G12G6DHW241I06YG43BDZ","5","0","0","0","1","1",,"27229","2017-10-11 16:06:23","23027"
"A1OU8F92A7M3MR","caus_thomas_fire_v4","3X4JMASXCMA8HMCNKQG63TMFMFU0BV","8","0","0","0","1","0",,"12915","2017-10-11 16:06:31","23028"
"A3DFL72CC0P7UE","caus_thomas_fire_v4","3RSDURM96AN3LKKS2PT5WTMK1PLYET","8","0","0","0","1","1",,"12178","2017-10-11 16:06:31","23029"
"A19HS6ON7R2KBP
A19HS6ON7R2KBP
A19HS6ON7R2KBP
A19HS6ON7R2KBP","caus_thomas_fire_v4","3X08E93BHVJXPLH7QOFF1EAELH566H","8","0","0","0","1","0",,"12063","2017-10-11 16:06:33","23030"
"AICAC77VJ3ZDB","caus_thomas_fire_v4","3ZOTGHDK5ICS1PL8XX4CJJSXO6VSOD","8","0","0","0","1","0",,"23808","2017-10-11 16:06:39","23031"
"ASV53ZC7ILJ7B","caus_thomas_fire_v4","3G2UL9A02DFGTLVC9YK77SAAGSP76H","8","0","0","0","1","0",,"13202","2017-10-11 16:06:44","23032"
"A3A8P4UR9A0DWQ","caus_thomas_fire_v4","3WQ3B2KGE8H8OBX5G9K6HY5PR7Y1BX","8","0","0","0","1","0",,"11567","2017-10-11 16:06:50","23033"
"A35BY30TC8WCL4","caus_thomas_fire_v4","3R08VXYT7CWEN0AI0GXB5M9N4UHW76","6","0","0","0","1","0",,"8873","2017-10-11 16:06:52","23034"
"A2A27TLFWKDXUW","caus_thomas_fire_v4","3C44YUNSI1Q4K0ERF7M2DKBNX8GDPK","5","0","0","0","1","1",,"18194","2017-10-11 16:07:00","23035"
"A1KTPYX40PRLVW","caus_thomas_fire_v4","3BQU611VFPL7PNL3M2L35YSI1JK995","8","0","0","0","1","0",,"10941","2017-10-11 16:07:06","23036"
"A1EOOTAGDRW618","caus_thomas_fire_v4","3G5W44VEU7J6LTR245I2NOSLGQSGKY","6","0","0","0","1","0",,"28540","2017-10-11 16:07:09","23037"
"A10DGGOQ9N186P
","caus_thomas_fire_v4","3RRCEFRB7MDPGAUO3R38FWCS3RAB4M","7","0","0","0","1","0",,"14783","2017-10-11 16:07:10","23038"
"A364KJDYEBAWC9","caus_thomas_fire_v4","337RC3OW0530NWZFE0TP2P8AS5LLVV","7","0","0","0","1","1",,"12523","2017-10-11 16:07:12","23039"
"A20CZCJPRP54G9","caus_thomas_fire_v4","3VA45EW49NOS75MEKEPSNI5OY6GO1N","7","0","0","0","1","0",,"19445","2017-10-11 16:07:13","23040"
"ap4fddwbjw470","caus_thomas_fire_v4","3NS0A6KXC491AOQO46LCA3GYKZ4ZG2","8","0","0","0","1","1",,"12568","2017-10-11 16:07:14","23041"
"A2MCRVU8I9VNHG","caus_thomas_fire_v4","3SLE99ER0NE5J7IDOKTY9SP14MCZBL","8","0","0","0","1","1",,"11556","2017-10-11 16:07:16","23042"
"AAXOAPIBFQUCB","caus_thomas_fire_v4","3K4J6M3CXEU09GIGSE5DTAPPBEYGAJ","8","0","0","0","1","1",,"11634","2017-10-11 16:07:21","23043"
"A26RO8GGTQAXGG","caus_thomas_fire_v4","3KXIR214I4HVSXUSKYAXE39O9LX42D","6","0","0","0","1","1",,"10261","2017-10-11 16:07:23","23044"
"A2OTDMCV8CZWML","caus_thomas_fire_v4","3PZDLQMM0TMYN177DDGFX1LC1YBC2V","6","0","0","0","1","0",,"11582","2017-10-11 16:07:29","23045"
"A1WPXRSJ3S12OV","caus_thomas_fire_v4","37U1UTWH9VNDFIYFBRFBWNX1NZ98R3","8","0","0","0","1","1",,"19199","2017-10-11 16:07:30","23046"
"A3MWV912LNFD67","caus_thomas_fire_v4","3PJ71Z61R43P0II8IP6AQSAZ37X91X","8","0","0","0","1","1",,"22898","2017-10-11 16:07:30","23047"
"A21ZXLGZ9OBHJV","caus_thomas_fire_v4","3SB5N7Y3O35483KY0C8K44DC2SKG0Q","0","0","0","0","1","1",,"8992","2017-10-11 16:07:31","23048"
"A35W13N45CZB1O","caus_thomas_fire_v4","3QAPZX2QN4EET9CR1XNV20JBS9E20S","8","0","0","0","1","0",,"11535","2017-10-11 16:07:36","23049"
"ASNTJ81DXL7E8","caus_thomas_fire_v4","3R9WASFE2ZHVWOUTTMFUSIGMJK5FZK","7","0","0","0","1","0",,"10941","2017-10-11 16:07:48","23050"
"
A136JB9HLQ43BO
","caus_thomas_fire_v4","386PBUZZXFYRW1ZLXBF6Z1XGXIDJL7","8","0","0","0","1","0",,"13670","2017-10-11 16:07:52","23051"
"AZIAQJWXTSFUX","caus_thomas_fire_v4","338JKRMM260E9CDRCKNVEA1QQEBHAJ","6","0","0","0","1","0",,"11672","2017-10-11 16:07:52","23052"
"A1DRDRFGZKQ6Q9","caus_thomas_fire_v4","3YT88D1N08Z5RHFE9QBI4U3CCLNK3U","8","0","0","0","1","0",,"9655","2017-10-11 16:07:57","23053"
"A2MFNJYTUKKPEJ","caus_thomas_fire_v4","3VHP9MDGRNLIOVJJ18VMHKF1A2JCFI","7","0","0","0","1","1",,"18500","2017-10-11 16:08:02","23054"
"AOSO1D81K0ET0","caus_thomas_fire_v4","3IQ1VMJRYTLLU6V8E8Z31T32713A9M","8","0","0","0","1","1",,"17875","2017-10-11 16:08:08","23055"
"ATST9OW8JK9PN","caus_thomas_fire_v4","3X65QVEQI0O4ONTFNJYKCXKL7Y5CLN","8","0","0","0","1","0",,"16299","2017-10-11 16:08:09","23056"
"A2Q2WYJ2Q71HY1","caus_thomas_fire_v4","3RXPCZQMQPC4FS5GWVCKI9WM7KSG1V","8","0","0","0","1","1",,"14177","2017-10-11 16:08:18","23057"
"A28XX39V2XCXJE","caus_thomas_fire_v4","3TS1AR6UQQFCCEONARNB1YNN9RS7FK","6","0","0","0","1","1",,"17299","2017-10-11 16:08:19","23058"
"A36JTIZPOO2HO5","caus_thomas_fire_v4","3AWETUDC92TF6FWJUULFVFTEZCWZIU","8","0","0","0","1","0",,"9950","2017-10-11 16:08:23","23059"
"A29VPSFOR6OO5H","caus_thomas_fire_v4","3VNL7UK1XFKZACLUNUQC6UF5YOJFT4","8","0","0","0","1","1",,"10147","2017-10-11 16:08:31","23060"
"A19ZWBQT8A3LIR","caus_thomas_fire_v4","3UN61F00HWQUS0FDDT88K3NAL97R5J","6","0","0","0","1","1",,"14077","2017-10-11 16:08:37","23061"
"A1OZ3PPHAEWA8S","caus_thomas_fire_v4","3JJVG1YBEBY7CTYOHWMIKOI63N35BJ","8","0","0","0","1","0",,"12879","2017-10-11 16:08:40","23062"
"A3SDRNVZJ5CDM7","caus_thomas_fire_v4","3E47SOBEYQX2YML92G17KHSTQU8CI6","6","0","0","0","1","0",,"41733","2017-10-11 16:09:02","23063"
"A2J2SUYN1P96HB","caus_thomas_fire_v4","3EG49X351UDA8013RBO51RNYIL4X62","8","0","0","0","1","0",,"9898","2017-10-11 16:09:03","23064"
"A2DC2G4L3J4YJ5
","caus_thomas_fire_v4","39K0FND3AHG01QE23H386F9M70AMAX","8","0","0","0","1","0",,"45712","2017-10-11 16:09:05","23065"
"A3FAURB3U6YND5","caus_thomas_fire_v4","3FDJT1UU74985W2IN9ZBJR1WQHBK5H","8","0","0","0","1","0",,"12579","2017-10-11 16:09:06","23066"
"A2CX92GOFJSA1Q","caus_thomas_fire_v4","3E4GGUZ1T8SG6ZJV5QXDLKYK67O2K2","8","0","0","0","1","0",,"12168","2017-10-11 16:09:07","23067"
"A189V9652OVX56","caus_thomas_fire_v4","3YWRV122CS05VAQWFLAG1YKLUYD8U7","8","0","0","0","1","0",,"62333","2017-10-11 16:09:22","23068"
"A2TFMDDIPNF02W","caus_thomas_fire_v4","3NC5L260MONJXKGMRD4DCK9IZG2FOI","8","0","0","0","1","1",,"24112","2017-10-11 16:09:26","23069"
"A2WYEOT1O3OXPS","caus_thomas_fire_v4","3F6KKYWMNB24HF2EZS9A9V6SXTHDNQ","8","0","0","0","1","1",,"65415","2017-10-11 16:09:34","23070"
"A2JOHICL072IY3","caus_thomas_fire_v4","34S6N1K2ZVKV5V4V9BCLNOH1KQ7HLY","8","0","0","0","1","0",,"30380","2017-10-11 16:09:36","23071"
"AGDJB8B8CDZ71","caus_thomas_fire_v4","3TVRFO09GKGSRL4AEFU7QA5V8GQLXV","4","0","0","0","1","0",,"6256","2017-10-11 16:09:44","23072"
"A1ZSL5ZLN9DLAK","caus_thomas_fire_v4","3TE3O8573092T3WQVA6AMWKY1ZI2RV","8","0","0","0","1","1",,"17753","2017-10-11 16:09:54","23073"
"A2CE1MLLPPEX1A
","caus_thomas_fire_v4","358010RM5EUVNQG4SJWDDJ3XZEUXVS","8","0","0","0","1","0",,"17427","2017-10-11 16:10:11","23074"
"A1Y508FNU04ZLH","caus_thomas_fire_v4","3IGI0VL647LVLCT3P1NQKPIR17NONX","8","0","0","0","1","0",,"21730","2017-10-11 16:10:12","23075"
"A33FSJRW7E1XVV","caus_thomas_fire_v4","3V5Q80FXIXSAA1BOKK5E4YHIVL123Q","2","0","0","0","1","0",,"2099","2017-10-11 16:10:24","23076"
"AXPOBOA6RMCV0","caus_thomas_fire_v4","3UOUJI6MTDFVABR4NTM8HX1EL7KUXZ","7","0","0","0","1","0",,"8651","2017-10-11 16:10:29","23077"
"A2JW2UOTSQNUDD","caus_thomas_fire_v4","3RU7GD8VPOUAMPX9CXHR8JXNYBSPSS","8","0","0","0","1","0",,"17171","2017-10-11 16:10:37","23078"
"A14OQ52EFQAN2W","caus_thomas_fire_v4","3JRJSWSMQHM25HN4D40F6ZQ7SOR3ET","7","0","0","0","1","1",,"13843","2017-10-11 16:10:45","23079"
"A36WAKKU5U5PKE","caus_thomas_fire_v4","3DBQWDE4Y6Z9D2NLKMRRBJI0KCK5NB","8","0","0","0","1","0",,"13537","2017-10-11 16:10:56","23080"
"A1PGU0IWYPUSQ5","caus_thomas_fire_v4","3E337GFOL997TZC51IAIFG9PALXGN3","8","0","0","0","1","0",,"12492","2017-10-11 16:11:04","23081"
"A2JZP4AZI1RTG4","caus_thomas_fire_v4","32Z9ZLUT1LL3BG7SM3SDF5LVFVCHOF","7","0","0","0","1","0",,"6402","2017-10-11 16:11:04","23082"
"A25D66AC4QUW2U","caus_thomas_fire_v4","323Q6SJS8IH953UZN09NSBCHNUMHFU","7","0","0","0","1","1",,"16813","2017-10-11 16:12:11","23083"
"A3X6N2OAY5XY8","caus_thomas_fire_v4","3A0EX8ZRN8P5EH88SYRFVLGZYS7BY5","4","0","0","0","1","1",,"15696","2017-10-11 16:12:13","23084"
"A3J84UA7THFJGI","caus_thomas_fire_v4","3907X2AHF06HHQGBII2LH1KJ0HS2P1","8","0","0","0","1","1",,"15170","2017-10-11 16:12:22","23085"
"A1UHNDB2EQ8TK0","caus_thomas_fire_v4","3HFNH7HEMHFSWWPXHA2ZJA4UFWKGQQ","2","0","0","0","1","0",,"5002","2017-10-11 16:12:28","23086"
"A1WYDO7PQJ8UG","caus_thomas_fire_v4","3OB0CAO74HQF5UBUSQ1BHWJXT5DYH9","8","0","0","0","1","1",,"10341","2017-10-11 16:12:29","23087"
"AP9WIQ4P78XLH","caus_thomas_fire_v4","33PPUNGG386SZEZ2KHFO97U5M8ERZP","6","0","0","0","1","1",,"6222","2017-10-11 16:12:46","23088"
"A3C86Q36W9CV85","caus_thomas_fire_v4","39KFRKBFINWPXBXHW3W115GY5RRYOX","7","0","0","0","1","0",,"8373","2017-10-11 16:12:49","23089"
"A2ZX7580NVWA61","caus_thomas_fire_v4","3VSOLARPKBALALWN5TKTELPW1R939H","8","0","0","0","1","1",,"32551","2017-10-11 16:13:31","23090"
"A3BBAD8UB2C9HO","caus_thomas_fire_v4","3WQ3B2KGE8H8OBX5G9K6HY5PR70B19","8","0","0","0","1","1",,"13803","2017-10-11 16:13:33","23091"
"A2APPZDU0VS9LN","caus_thomas_fire_v4","38F71OA9GTXVXHVAEXP0KGKD4GKFM0","5","0","0","0","1","1",,"35240","2017-10-11 16:13:39","23092"
"A3L5M80U6TSFJO
","caus_thomas_fire_v4","3WT783CTPBISBE73W69QYUOGV4RBCZ","8","0","0","0","1","0",,"9522","2017-10-11 16:13:39","23093"
"A2V9JE42W9BXQ5","caus_thomas_fire_v4","3N1FSUEFL51IV7S8HNUEAM0S6CMD4V","8","0","0","0","1","0",,"11148","2017-10-11 16:13:41","23094"
"A33L61XKPX76DB","caus_thomas_fire_v4","3N4BPTXIO8TPQBSXOA7JR3TCPY4UK9","8","0","0","0","1","0",,"88764","2017-10-11 16:13:46","23095"
"A3UUTFA63Y9TPX","caus_thomas_fire_v4","351SEKWQS0IYZXHENRUAWGHSS37DMQ","4","0","0","0","1","0",,"19669","2017-10-11 16:14:15","23096"
"ABSTVXSZIJGN5","caus_thomas_fire_v4","37C0GNLMHF4WAUWM0BNT7KK623S6D9","4","0","0","0","1","1",,"6337","2017-10-11 16:14:15","23097"
"A3pqugiqqbpr98","caus_thomas_fire_v4","3WRFBPLXRAP6ZN0H633YWMKG6GQ3NG","6","0","0","0","1","1",,"3406","2017-10-11 16:14:24","23098"
"A1E7M4YY5LFFVO","caus_thomas_fire_v4","3UXUOQ9OKEYHGN7FZB1JNXCWCBC7A4","8","0","0","0","1","0",,"12672","2017-10-11 16:14:38","23099"
"A2A3QA1VCMLUSX","caus_thomas_fire_v4","3A4TN5196KJ22RAPWYJMK5REQHTHCI","8","0","0","0","1","0",,"13253","2017-10-11 16:14:40","23100"
"ASIULWA5R4JYU","caus_thomas_fire_v4","3WAKVUDHUWH1VWLD5GIANYOQJE6U75","7","0","0","0","1","0",,"23705","2017-10-11 16:14:50","23101"
"AWOSAGDMCE9KZ","caus_thomas_fire_v4","3XUHV3NRVKZH361AHOWE6ZL4Y0C5H3","8","0","0","0","1","1",,"11581","2017-10-11 16:14:56","23102"
"A31MUX0WVEC6XU","caus_thomas_fire_v4","37QW5D2ZRGNPGXYSQGFGMX2X91Q8SP","6","0","0","0","1","0",,"8790","2017-10-11 16:15:39","23103"
"AGVIHLR1DX7","caus_thomas_fire_v4","39U1BHVTDLS4U0513ZPA5LQ8VYE3TJ","8","0","0","0","1","1",,"14342","2017-10-11 16:16:14","23104"
"A3OAQN9SPZS18T","caus_thomas_fire_v4","3W92K5RLWUIML7WUMDDIL0CD6FMV5I","8","0","0","0","1","0",,"11494","2017-10-11 16:16:15","23105"
"A2EZNZ6X58RTNR","caus_thomas_fire_v4","3YGXWBAF70I8QFMUHRZ3QGIALC7C4R","0","0","0","0","1","0",,"11302","2017-10-11 16:16:39","23106"
"A2TNWZG1BJRGNM","caus_thomas_fire_v4","38YMOXR4MU0VJ0WDH6SJZ89R9JXW67","8","0","0","0","1","0",,"17457","2017-10-11 16:16:41","23107"
"A3OSBMDWIRT9NZ","caus_thomas_fire_v4","3FE7TXL1LIO2H2HQIVHAH6AT5DDQ2F","8","0","0","0","1","1",,"17195","2017-10-11 16:16:56","23108"
"AV7UX8QQXABSK","caus_thomas_fire_v4","3QEMNNSB2X0FEUARJLSLDYK2XECD7F","8","0","0","0","1","1",,"58416","2017-10-11 16:17:11","23109"
"A305KD2HBUUCMQ","caus_thomas_fire_v4","34FNN24DCMA3P1RZRO02SZG7OWLY5R","5","0","0","0","1","0",,"7096","2017-10-11 16:17:31","23110"
"AK467M5VTG7N4","caus_thomas_fire_v4","32AT8R96GLANEU55TJGLIPKM6SKSUR","8","0","0","0","1","1",,"16080","2017-10-11 16:17:43","23111"
"A2E3SM3T01ENIR","caus_thomas_fire_v4","3CN4LGXD5XPLTINZDJHSN7ATO0RY4N","8","0","0","0","1","0",,"8955","2017-10-11 16:18:34","23112"
"A002160837SWJFPIAI7L7","caus_thomas_fire_v4","3V0Z7YWSIY1UMAD74UBKNT91M5WV2I","8","0","0","0","1","0",,"8746","2017-10-11 16:19:12","23113"
"A3T7N805PVNEXN","caus_thomas_fire_v4","3M23Y66PO282CJF4X1II2J66362S6P","7","0","0","0","1","1",,"9520","2017-10-11 16:19:24","23114"
"ABN6GDFW4N8AK","caus_thomas_fire_v4","3WETL7AQWT929YUB237C25KUFVS35S","8","0","0","0","1","1",,"11150","2017-10-11 16:19:34","23115"
"AVDF9O70MW7X8","caus_thomas_fire_v4","3NXNZ5RS1AY3B4XA75NJR21C6TU79P","8","0","0","0","1","1",,"14238","2017-10-11 16:19:47","23116"
"A1YGENVE7OI5JL","caus_thomas_fire_v4","3WMINLGALB4NS42BQS9U3J4ADM3CA2","6","0","0","0","1","1",,"654955","2017-10-11 16:20:16","23117"
"A13FUEPWBCLBUY","caus_thomas_fire_v4","37U1UTWH9VNDFIYFBRFBWNX1NZ8R8L","8","0","0","0","1","0",,"12562","2017-10-11 16:20:24","23118"
"A2O5J0420C1UPC
","caus_thomas_fire_v4","3R8YZBNQ9HJ933EWO7Y5DXR1GT17QE","7","0","0","0","1","1",,"8707","2017-10-11 16:21:10","23119"
"A2UBNWFE5E72WC","caus_thomas_fire_v4","3K2755HG5S4STNPX14QX1QXJV2VDFJ","8","0","0","0","1","1",,"18611","2017-10-11 16:21:22","23120"
"AGRKG3YT3KMD8","caus_thomas_fire_v4","3RXCAC0YIRQMQSP1VGLZXJJULQY8G7","8","0","0","0","1","0",,"8495","2017-10-11 16:21:58","23121"
"AVQGY7FCU80XP","caus_thomas_fire_v4","39GHHAVOMFSVYTS0RJGPDKV5BWK4J1","7","0","0","0","1","0",,"12441","2017-10-11 16:22:03","23122"
"A1VZSFHTU51JP0","caus_thomas_fire_v4","3ND9UOO81K3D2LZK4AYLORROZEKLW2","8","0","0","0","1","0",,"17265","2017-10-11 16:22:09","23123"
"A2LF84L3K71GR2","caus_thomas_fire_v4","33FBRBDW6O099G9WTUPG7SYFNY3C8Y","8","0","0","0","1","1",,"15555","2017-10-11 16:22:24","23124"
"A3CDJ8PZX578GQ","caus_thomas_fire_v4","333U7HK6I9G8YPBTKUHIGOPBO9CJDS","6","0","0","0","1","1",,"20866","2017-10-11 16:22:44","23125"
"A1PJLZSOUQ4MIL","caus_thomas_fire_v4","3ZY8KE4ISJ4BETFS651LJB742B7VQT","8","0","0","0","1","1",,"8382","2017-10-11 16:24:03","23126"
"A1F8ONXY28ROAA","caus_thomas_fire_v4","3IQ1VMJRYTLLU6V8E8Z31T32710A9J","8","0","0","0","1","0",,"16388","2017-10-11 16:24:53","23127"
"ADVIE0ZHLWDDH","caus_thomas_fire_v4","3IAEQB9FMELU49BSRT0X5EJJQ5KWDZ","8","0","0","0","1","1",,"8382","2017-10-11 16:25:47","23128"
"ACSS93E03ZUGX","caus_thomas_fire_v4","3VHP9MDGRNLIOVJJ18VMHKF1A2GCFF","8","0","0","0","1","0",,"6709","2017-10-11 16:26:32","23129"
"AR4UI9K92BUT3
","caus_thomas_fire_v4","3GS6S824SQY3QL25GNE01JVD49KNW6","7","0","0","0","1","0",,"19798","2017-10-11 16:27:02","23130"
"A2NT3OQZUUZPEO","caus_thomas_fire_v4","3L4PIM1GQTHSUOPXOVD5V0L3GE9YR4","7","0","0","0","1","0",,"10151","2017-10-11 16:27:40","23131"
"A27K37YQZDPER6","caus_thomas_fire_v4","3KWTYT08704JP2K089BCYREBFHJL5O","8","0","0","0","1","1",,"11047","2017-10-11 16:28:31","23132"
"AUDRQA1LVB1ON","caus_thomas_fire_v4","3M68NM076H8QB4FRICIDC91AH4J6RF","8","0","0","0","1","1",,"9226","2017-10-11 16:28:42","23133"
"A2NDF21CYB14BB","caus_thomas_fire_v4","3JCG6DTRV3RJ9LJBK67BDO8WLJSQQU","8","0","0","0","1","1",,"16341","2017-10-11 16:28:52","23134"
"A2CEUCPDECS6U3","caus_thomas_fire_v4","39RP059MEHU5K0JU9V341QTSPISMBP","8","0","0","0","1","1",,"9888","2017-10-11 16:29:00","23135"
"A3KECQ3YIW2I0F","caus_thomas_fire_v4","37TD41K0AHARS0O57SVLOJYGZSFSCJ","8","0","0","0","1","1",,"10043","2017-10-11 16:30:12","23136"
"A8FUMDQFBKMXR","caus_thomas_fire_v4","3AMW0RGHOD3D6C5441059PNHBCHNPB","7","0","0","0","1","1",,"9859","2017-10-11 16:30:31","23137"
"AEZ64TVDZQOU6","caus_thomas_fire_v4","3M68NM076H8QB4FRICIDC91AH4GR6X","5","0","0","0","1","0",,"8390","2017-10-11 16:30:58","23138"
"A1A7KL0CEERE60","caus_thomas_fire_v4","3BV8HQ2ZZW2YCNTAG1WRHJC0H0VA6B","6","0","0","0","1","0",,"26549","2017-10-11 16:31:11","23139"
"A23437BMZ5T1FH","caus_thomas_fire_v4","3GNCZX450IO6MTBFVXV0NJ3HC5KPAV","8","0","0","0","1","0",,"15363","2017-10-11 16:31:16","23140"
"A3L2UB07EZJAMD","caus_thomas_fire_v4","3I33IC7ZWF3AUMA9TZKOR6VO1VR2AK","8","0","0","0","1","0",,"8838","2017-10-11 16:32:27","23141"
"APF1EAZT104LQ","caus_thomas_fire_v4","3SNLUL3WO4O0AHAF9AJK636REY9ULC","5","0","0","0","1","0",,"19190","2017-10-11 16:32:44","23142"
"A6U2C66WQ7QQN","caus_thomas_fire_v4","37XITHEISWAFRLOSS3VGY9TKDQRCRA","8","0","0","0","1","1",,"12927","2017-10-11 16:32:54","23143"
"A1R337941EIH28","caus_thomas_fire_v4","36ZN444YTRZ37BICSLAYFHMAF8VOIJ","8","0","0","0","1","0",,"13581","2017-10-11 16:33:32","23144"
"A1RLZ5BBJBHZNM","caus_thomas_fire_v4","3KOPY89HM83AGX9WR5B63F3ZXWNJ3U","5","0","0","0","1","0",,"9452","2017-10-11 16:33:45","23145"
"A240OTT1T85UGT","caus_thomas_fire_v4","30IQTZXKAK7FUPFOPM8OSQD75IGX0Z","4","0","0","0","1","0",,"14336","2017-10-11 16:34:53","23146"
"A1ODGBU73JE8S","caus_thomas_fire_v4","30BXRYBRP4YBGPGUDPJNWZYHIXCHWS","8","0","0","0","1","1",,"6274","2017-10-11 16:35:09","23147"
"A2CF2BD4Q0ZDJN","caus_thomas_fire_v4","3DR23U6WE5F74YLYSJ66OCU5MN1ETI","6","0","0","0","1","0",,"18381","2017-10-11 16:35:36","23148"
"A1TGV7LT6LTIQU","caus_thomas_fire_v4","3OVHNO1VE62YY4GX2GK44ID177UDZC","7","0","0","0","1","0",,"18976","2017-10-11 16:35:54","23149"
"A2KBZ75HMJ7KVX","caus_thomas_fire_v4","3P529IW9KYMBRZDPELOLK35O4BUFLY","8","0","0","0","1","0",,"16336","2017-10-11 16:39:11","23150"
"AIWSB4YTN32GF","caus_thomas_fire_v4","3MB8LZR5BFUM7L53FWFI0GXTC7BKL5","8","0","0","0","1","0",,"7313","2017-10-11 16:39:54","23151"
"AE05QWB4IQA44
","caus_thomas_fire_v4","392CY0QWG1SZ3I8U91VP1JG5YHWI44","8","0","0","0","1","1",,"15490","2017-10-11 16:40:42","23152"
"A3FUDUZVJAENVE","caus_thomas_fire_v4","378XPAWRUCEE57OBI25GEM25QROIAB","8","0","0","0","1","0",,"14594","2017-10-11 16:41:17","23153"
"A24B5UF6RMHYGX","caus_thomas_fire_v4","3ZAK8W07I4FNDLLTKHX18JE3B0YU03","1","0","0","0","1","1",,"1949","2017-10-11 16:41:30","23154"
"AFU00NU09CFXE","caus_thomas_fire_v4","3TOK3KHVJTJ6IR1G9U61OSW11SHO7L","8","0","0","0","1","1",,"14350","2017-10-11 16:42:49","23155"
"A3JT9LHWLFHNS8
","caus_thomas_fire_v4","34S9DKFK73Q7FQX5VOWOMGGTFHLNY6","6","0","0","0","1","0",,"13232","2017-10-11 16:43:46","23156"
"A27O2IILV3S5YS","caus_thomas_fire_v4","34T446B1C0FRRR4TYQC1EDSX40U0C2","5","0","0","0","1","1",,"10743","2017-10-11 16:45:02","23157"
"A2NL38BFEE3BVY
","caus_thomas_fire_v4","37TD41K0AHARS0O57SVLOJYGZSDSCH","7","0","0","0","1","1",,"10991","2017-10-11 16:45:33","23158"
"A1YBX7P5PY8LL","caus_thomas_fire_v4","33PPO7FECVGC3ERN2CWI4NABBUKIDC","8","0","0","0","1","0",,"11763","2017-10-11 16:46:15","23159"
"A24BRTWG07T53Z","caus_thomas_fire_v4","36W0OB37HWFFAKLZOC3UV3SZZZFHZH","8","0","0","0","1","0",,"14407","2017-10-11 16:52:33","23160"
"AR9ZC60MDS2Q","caus_thomas_fire_v4","3OCHAWUVGOLH7FMSTFI6BASGJH0KX8","8","0","0","0","1","0",,"12010","2017-10-11 16:54:18","23161"
"A2LUYCORWDOR7Q","caus_thomas_fire_v4","326O153BMIZ0N9P16T6RJ8CJJ1GED2","8","0","0","0","1","1",,"18424","2017-10-11 16:54:29","23162"
"A2XKIP0PJ3FJ20","caus_thomas_fire_v4","3X66WABAJWJ0PVJVJZQ362BJ55I3GO","7","0","0","0","1","1",,"30810","2017-10-11 16:56:49","23163"
"A1G452MFAS690B","caus_thomas_fire_v4","3JNQLM5FT4NRQ51DQQ9E0KBZV702LC","8","0","0","0","1","0",,"8863","2017-10-11 16:58:10","23164"
"A2BPBFN87X32NO","caus_thomas_fire_v4","3NVC2EB65Q00BM4VD5C9D2INA17Y3G","8","0","0","0","1","0",,"11699","2017-10-11 16:58:11","23165"
"A2HVJ3DDE6JJ8Z","caus_thomas_fire_v4","3A4NIXBJ760HX95608SYFTPX1DMMLU","1","0","0","0","1","1",,"11073","2017-10-11 16:58:21","23166"
"A2MFMT03E21ZIT","caus_thomas_fire_v4","3LPW2N6LKT3M8S7UHN3DPEAUS8AU5P","8","0","0","0","1","0",,"10397","2017-10-11 16:58:24","23167"
"A1WOCD9SAYI07V","caus_thomas_fire_v4","3A1PQ49WVHIIFO0RG1U2398NMLJ1HV","8","0","0","0","1","1",,"16294","2017-10-11 16:58:37","23168"
"A1274B3RL8IZ8H","caus_thomas_fire_v4","3X4MXAO0BGPO5JUX9UVHA30N56BWR5","8","0","0","0","1","1",,"12070","2017-10-11 16:58:54","23169"
"A133QG754CGS3I","caus_thomas_fire_v4","34S6N1K2ZVKV5V4V9BCLNOH1KRNHLG","8","0","0","0","1","1",,"16005","2017-10-11 17:00:29","23170"
