"subject","version","assignmentId","trial_ind","ex_ind","question_ind","response","correct","cond","rt","stamp","id"
"A1B3B409V58ACB","caus_thomas_fire_v4","3OJSZ2ATDSXKAHVY4FA2FMWAKXB75Y","0","7","0","Yes","1","1","6797","2017-10-11 15:48:15","39"
"A1B3B409V58ACB","caus_thomas_fire_v4","3OJSZ2ATDSXKAHVY4FA2FMWAKXB75Y","1","9","0","Yes","1","1","4440","2017-10-11 15:48:21","40"
"A1B3B409V58ACB","caus_thomas_fire_v4","3OJSZ2ATDSXKAHVY4FA2FMWAKXB75Y","2","1","0","No","1","1","3324","2017-10-11 15:48:25","41"
"A1LB9JOMFQ1UMG","caus_thomas_fire_v4","3IHR8NYAM72RK4VYMWL9AGHHKVM4PX","0","6","0","No","1","0","15996","2017-10-11 15:48:26","42"
"A2R794P3E8X0MK","caus_thomas_fire_v4","37UEWGM5HT9V4IEUC66WHDAT9T0R1Z","0","5","0","Yes","1","1","4984","2017-10-11 15:48:27","43"
"A1B3B409V58ACB","caus_thomas_fire_v4","3OJSZ2ATDSXKAHVY4FA2FMWAKXB75Y","3","0","0","No","1","1","2751","2017-10-11 15:48:29","44"
"A1EBVJWBNNPUFU","caus_thomas_fire_v4","3ERMJ6L4DYTIIOG4WEROWO7W6S1M73","0","4","0","Yes","1","1","5791","2017-10-11 15:48:30","45"
"A2UO3QJZNC2VOE","caus_thomas_fire_v4","3AAJC4I4FGTB1QGPCC6F7G8ECRJJZO","0","3","0","No","1","0","5524","2017-10-11 15:48:31","46"
"A2R794P3E8X0MK","caus_thomas_fire_v4","37UEWGM5HT9V4IEUC66WHDAT9T0R1Z","1","2","0","Yes","1","1","4295","2017-10-11 15:48:33","47"
"A1LB9JOMFQ1UMG","caus_thomas_fire_v4","3IHR8NYAM72RK4VYMWL9AGHHKVM4PX","1","3","0","No","1","0","6207","2017-10-11 15:48:34","48"
"A1B3B409V58ACB","caus_thomas_fire_v4","3OJSZ2ATDSXKAHVY4FA2FMWAKXB75Y","4","2","0","Yes","1","1","4642","2017-10-11 15:48:34","49"
"A1EBVJWBNNPUFU","caus_thomas_fire_v4","3ERMJ6L4DYTIIOG4WEROWO7W6S1M73","1","5","0","Yes","1","1","3671","2017-10-11 15:48:34","50"
"A2UO3QJZNC2VOE","caus_thomas_fire_v4","3AAJC4I4FGTB1QGPCC6F7G8ECRJJZO","1","2","0","Yes","1","0","2841","2017-10-11 15:48:35","51"
"A35DS4T8H1MWYD","caus_thomas_fire_v4","3Z4GS9HPNVBZXL9HS8PZD6A6B3677D","0","4","0","Yes","1","1","6317","2017-10-11 15:48:36","52"
"AY52II1OC5RZ1","caus_thomas_fire_v4","31N2WW6R9RRUBVN08FKLOHB74P3F3K","0","4","0","Yes","1","1","4832","2017-10-11 15:48:37","53"
"A2UO3QJZNC2VOE","caus_thomas_fire_v4","3AAJC4I4FGTB1QGPCC6F7G8ECRJJZO","2","5","0","No","1","0","1121","2017-10-11 15:48:37","54"
"A1LB9JOMFQ1UMG","caus_thomas_fire_v4","3IHR8NYAM72RK4VYMWL9AGHHKVM4PX","2","4","0","No","1","0","2601","2017-10-11 15:48:37","55"
"A1EBVJWBNNPUFU","caus_thomas_fire_v4","3ERMJ6L4DYTIIOG4WEROWO7W6S1M73","2","1","0","No","1","1","2232","2017-10-11 15:48:38","56"
"A2UO3QJZNC2VOE","caus_thomas_fire_v4","3AAJC4I4FGTB1QGPCC6F7G8ECRJJZO","3","1","0","No","1","0","962","2017-10-11 15:48:39","57"
"A1B3B409V58ACB","caus_thomas_fire_v4","3OJSZ2ATDSXKAHVY4FA2FMWAKXB75Y","5","8","0","Yes","1","1","3917","2017-10-11 15:48:39","58"
"A2R794P3E8X0MK","caus_thomas_fire_v4","37UEWGM5HT9V4IEUC66WHDAT9T0R1Z","2","1","0","No","1","1","5803","2017-10-11 15:48:40","59"
"A2UO3QJZNC2VOE","caus_thomas_fire_v4","3AAJC4I4FGTB1QGPCC6F7G8ECRJJZO","4","8","0","No","1","0","1389","2017-10-11 15:48:41","60"
"A1LB9JOMFQ1UMG","caus_thomas_fire_v4","3IHR8NYAM72RK4VYMWL9AGHHKVM4PX","3","7","0","No","1","0","3099","2017-10-11 15:48:41","61"
"A1EBVJWBNNPUFU","caus_thomas_fire_v4","3ERMJ6L4DYTIIOG4WEROWO7W6S1M73","3","9","0","Yes","1","1","3593","2017-10-11 15:48:42","62"
"AY52II1OC5RZ1","caus_thomas_fire_v4","31N2WW6R9RRUBVN08FKLOHB74P3F3K","1","3","0","Yes","1","1","4791","2017-10-11 15:48:42","63"
"A1B3B409V58ACB","caus_thomas_fire_v4","3OJSZ2ATDSXKAHVY4FA2FMWAKXB75Y","6","4","0","Yes","1","1","2552","2017-10-11 15:48:43","64"
"A2UO3QJZNC2VOE","caus_thomas_fire_v4","3AAJC4I4FGTB1QGPCC6F7G8ECRJJZO","5","6","0","No","1","0","1200","2017-10-11 15:48:43","65"
"A35DS4T8H1MWYD","caus_thomas_fire_v4","3Z4GS9HPNVBZXL9HS8PZD6A6B3677D","1","1","0","No","1","1","6876","2017-10-11 15:48:44","66"
"A2R794P3E8X0MK","caus_thomas_fire_v4","37UEWGM5HT9V4IEUC66WHDAT9T0R1Z","3","9","0","Yes","1","1","4074","2017-10-11 15:48:45","67"
"A1EBVJWBNNPUFU","caus_thomas_fire_v4","3ERMJ6L4DYTIIOG4WEROWO7W6S1M73","4","0","0","No","1","1","2028","2017-10-11 15:48:45","68"
"A32QBXDPHHSTOD","caus_thomas_fire_v4","33F859I566EJSMIJIYNR9LLW8WTHBB","0","3","0","No","1","0","4282","2017-10-11 15:48:46","69"
"A2UO3QJZNC2VOE","caus_thomas_fire_v4","3AAJC4I4FGTB1QGPCC6F7G8ECRJJZO","6","0","0","Yes","0","0","2242","2017-10-11 15:48:47","70"
"A1B3B409V58ACB","caus_thomas_fire_v4","3OJSZ2ATDSXKAHVY4FA2FMWAKXB75Y","7","6","0","Yes","1","1","3085","2017-10-11 15:48:47","71"
"AY52II1OC5RZ1","caus_thomas_fire_v4","31N2WW6R9RRUBVN08FKLOHB74P3F3K","2","0","0","No","1","1","5460","2017-10-11 15:48:49","72"
"A1LB9JOMFQ1UMG","caus_thomas_fire_v4","3IHR8NYAM72RK4VYMWL9AGHHKVM4PX","4","1","0","No","1","0","7345","2017-10-11 15:48:50","73"
"A35DS4T8H1MWYD","caus_thomas_fire_v4","3Z4GS9HPNVBZXL9HS8PZD6A6B3677D","2","9","0","Yes","1","1","4924","2017-10-11 15:48:50","74"
"A1EBVJWBNNPUFU","caus_thomas_fire_v4","3ERMJ6L4DYTIIOG4WEROWO7W6S1M73","5","6","0","Yes","1","1","3544","2017-10-11 15:48:50","75"
"A2R794P3E8X0MK","caus_thomas_fire_v4","37UEWGM5HT9V4IEUC66WHDAT9T0R1Z","4","8","0","Yes","1","1","4442","2017-10-11 15:48:50","76"
"A2UO3QJZNC2VOE","caus_thomas_fire_v4","3AAJC4I4FGTB1QGPCC6F7G8ECRJJZO","7","9","0","No","1","0","2893","2017-10-11 15:48:51","77"
"A1B3B409V58ACB","caus_thomas_fire_v4","3OJSZ2ATDSXKAHVY4FA2FMWAKXB75Y","8","5","0","Yes","1","1","2920","2017-10-11 15:48:51","78"
"A1LB9JOMFQ1UMG","caus_thomas_fire_v4","3IHR8NYAM72RK4VYMWL9AGHHKVM4PX","5","5","0","No","1","0","2529","2017-10-11 15:48:53","79"
"A273DS7TQWR9M1","caus_thomas_fire_v4","33SA9F9TRXVZWFPSNOBHBW14QHJEW8","0","9","0","No","1","0","5509","2017-10-11 15:48:53","80"
"A1EBVJWBNNPUFU","caus_thomas_fire_v4","3ERMJ6L4DYTIIOG4WEROWO7W6S1M73","6","2","0","Yes","1","1","2526","2017-10-11 15:48:53","81"
"A2UO3QJZNC2VOE","caus_thomas_fire_v4","3AAJC4I4FGTB1QGPCC6F7G8ECRJJZO","8","7","0","No","1","0","2025","2017-10-11 15:48:54","82"
"A32QBXDPHHSTOD","caus_thomas_fire_v4","33F859I566EJSMIJIYNR9LLW8WTHBB","1","6","0","No","1","0","6090","2017-10-11 15:48:54","83"
"A35DS4T8H1MWYD","caus_thomas_fire_v4","3Z4GS9HPNVBZXL9HS8PZD6A6B3677D","3","3","0","Yes","1","1","3850","2017-10-11 15:48:54","84"
"AY52II1OC5RZ1","caus_thomas_fire_v4","31N2WW6R9RRUBVN08FKLOHB74P3F3K","3","5","0","Yes","1","1","4698","2017-10-11 15:48:55","85"
"A1B3B409V58ACB","caus_thomas_fire_v4","3OJSZ2ATDSXKAHVY4FA2FMWAKXB75Y","9","3","0","Yes","1","1","2632","2017-10-11 15:48:55","86"
"A2R794P3E8X0MK","caus_thomas_fire_v4","37UEWGM5HT9V4IEUC66WHDAT9T0R1Z","5","4","0","Yes","1","1","5090","2017-10-11 15:48:56","87"
"A1LB9JOMFQ1UMG","caus_thomas_fire_v4","3IHR8NYAM72RK4VYMWL9AGHHKVM4PX","6","2","0","Yes","1","0","2765","2017-10-11 15:48:57","88"
"A1EBVJWBNNPUFU","caus_thomas_fire_v4","3ERMJ6L4DYTIIOG4WEROWO7W6S1M73","7","3","0","Yes","1","1","2371","2017-10-11 15:48:57","89"
"A2UO3QJZNC2VOE","caus_thomas_fire_v4","3AAJC4I4FGTB1QGPCC6F7G8ECRJJZO","9","4","0","No","1","0","2765","2017-10-11 15:48:57","90"
"A2Z2OV7QGU10QN","caus_thomas_fire_v4","337RC3OW0530NWZFE0TP2P8AS5ILVS","0","4","0","Yes","1","1","5768","2017-10-11 15:48:58","91"
"A35DS4T8H1MWYD","caus_thomas_fire_v4","3Z4GS9HPNVBZXL9HS8PZD6A6B3677D","4","8","0","Yes","1","1","4047","2017-10-11 15:49:00","92"
"AY52II1OC5RZ1","caus_thomas_fire_v4","31N2WW6R9RRUBVN08FKLOHB74P3F3K","4","1","0","No","1","1","4112","2017-10-11 15:49:00","93"
"A273DS7TQWR9M1","caus_thomas_fire_v4","33SA9F9TRXVZWFPSNOBHBW14QHJEW8","1","6","0","No","1","0","5965","2017-10-11 15:49:00","94"
"A159MC0L7J302O","caus_thomas_fire_v4","3VFJCI1K4Z0S8X4XUPRZO0EZBIJRGZ","0","9","0","Yes","1","1","10485","2017-10-11 15:49:00","95"
"A1LB9JOMFQ1UMG","caus_thomas_fire_v4","3IHR8NYAM72RK4VYMWL9AGHHKVM4PX","7","8","0","No","1","0","2597","2017-10-11 15:49:00","96"
"A1EBVJWBNNPUFU","caus_thomas_fire_v4","3ERMJ6L4DYTIIOG4WEROWO7W6S1M73","8","7","0","Yes","1","1","3053","2017-10-11 15:49:01","97"
"A2R794P3E8X0MK","caus_thomas_fire_v4","37UEWGM5HT9V4IEUC66WHDAT9T0R1Z","6","6","0","Yes","1","1","4096","2017-10-11 15:49:01","98"
"AMKEGABQMZYIK","caus_thomas_fire_v4","3NL0RFNU0FOQ9DYI94G1EZVIQLGK4C","0","6","0","No","1","0","7130","2017-10-11 15:49:02","99"
"A32QBXDPHHSTOD","caus_thomas_fire_v4","33F859I566EJSMIJIYNR9LLW8WTHBB","2","5","0","No","1","0","7160","2017-10-11 15:49:02","100"
"A3IADAHNMIS0AM","caus_thomas_fire_v4","39KFRKBFINWPXBXHW3W115GY5RPOYL","0","1","0","No","1","0","6826","2017-10-11 15:49:02","101"
"ARB80JPV0HQ5O","caus_thomas_fire_v4","3A7Y0R2P2OPMWVGABUIUAVS34RLJXR","0","8","0","No","0","1","9156","2017-10-11 15:49:02","102"
"AAJ9TP0YJ9OQ3","caus_thomas_fire_v4","36TFCYNS44BQ5PLKNUF9YICORZHHXK","0","0","0","No","1","0","6039","2017-10-11 15:49:04","103"
"A1EBVJWBNNPUFU","caus_thomas_fire_v4","3ERMJ6L4DYTIIOG4WEROWO7W6S1M73","9","8","0","Yes","1","1","2578","2017-10-11 15:49:05","104"
"AY52II1OC5RZ1","caus_thomas_fire_v4","31N2WW6R9RRUBVN08FKLOHB74P3F3K","5","8","0","Yes","1","1","3892","2017-10-11 15:49:05","105"
"A35DS4T8H1MWYD","caus_thomas_fire_v4","3Z4GS9HPNVBZXL9HS8PZD6A6B3677D","5","7","0","Yes","1","1","4292","2017-10-11 15:49:05","106"
"A2Z2OV7QGU10QN","caus_thomas_fire_v4","337RC3OW0530NWZFE0TP2P8AS5ILVS","1","5","0","Yes","1","1","5801","2017-10-11 15:49:05","107"
"A1LB9JOMFQ1UMG","caus_thomas_fire_v4","3IHR8NYAM72RK4VYMWL9AGHHKVM4PX","8","0","0","No","1","0","3616","2017-10-11 15:49:05","108"
"A32QBXDPHHSTOD","caus_thomas_fire_v4","33F859I566EJSMIJIYNR9LLW8WTHBB","3","4","0","No","1","0","3303","2017-10-11 15:49:06","109"
"A2R794P3E8X0MK","caus_thomas_fire_v4","37UEWGM5HT9V4IEUC66WHDAT9T0R1Z","7","0","0","No","1","1","4130","2017-10-11 15:49:06","110"
"A273DS7TQWR9M1","caus_thomas_fire_v4","33SA9F9TRXVZWFPSNOBHBW14QHJEW8","2","3","0","No","1","0","6029","2017-10-11 15:49:07","111"
"A3IADAHNMIS0AM","caus_thomas_fire_v4","39KFRKBFINWPXBXHW3W115GY5RPOYL","1","8","0","No","1","0","4728","2017-10-11 15:49:08","112"
"A31Q4HFUPE2DXG","caus_thomas_fire_v4","32VNZTT0A75CWHBDZOPYFBHWLDA4RP","0","8","0","Yes","1","1","10241","2017-10-11 15:49:08","113"
"A1LB9JOMFQ1UMG","caus_thomas_fire_v4","3IHR8NYAM72RK4VYMWL9AGHHKVM4PX","9","9","0","No","1","0","2235","2017-10-11 15:49:08","114"
"AAJ9TP0YJ9OQ3","caus_thomas_fire_v4","36TFCYNS44BQ5PLKNUF9YICORZHHXK","1","1","0","No","1","0","3491","2017-10-11 15:49:09","115"
"ARB80JPV0HQ5O","caus_thomas_fire_v4","3A7Y0R2P2OPMWVGABUIUAVS34RLJXR","1","6","0","No","0","1","6224","2017-10-11 15:49:09","116"
"A35DS4T8H1MWYD","caus_thomas_fire_v4","3Z4GS9HPNVBZXL9HS8PZD6A6B3677D","6","6","0","Yes","1","1","3613","2017-10-11 15:49:09","117"
"A2Z2OV7QGU10QN","caus_thomas_fire_v4","337RC3OW0530NWZFE0TP2P8AS5ILVS","2","1","0","No","1","1","3785","2017-10-11 15:49:10","118"
"A159MC0L7J302O","caus_thomas_fire_v4","3VFJCI1K4Z0S8X4XUPRZO0EZBIJRGZ","1","1","0","No","1","1","8780","2017-10-11 15:49:10","119"
"A2R794P3E8X0MK","caus_thomas_fire_v4","37UEWGM5HT9V4IEUC66WHDAT9T0R1Z","8","7","0","Yes","1","1","3425","2017-10-11 15:49:11","120"
"A32QBXDPHHSTOD","caus_thomas_fire_v4","33F859I566EJSMIJIYNR9LLW8WTHBB","4","8","0","No","1","0","4466","2017-10-11 15:49:12","121"
"AY52II1OC5RZ1","caus_thomas_fire_v4","31N2WW6R9RRUBVN08FKLOHB74P3F3K","6","2","0","Yes","1","1","6473","2017-10-11 15:49:12","122"
"AMKEGABQMZYIK","caus_thomas_fire_v4","3NL0RFNU0FOQ9DYI94G1EZVIQLGK4C","1","5","0","No","1","0","9548","2017-10-11 15:49:12","123"
"A273DS7TQWR9M1","caus_thomas_fire_v4","33SA9F9TRXVZWFPSNOBHBW14QHJEW8","3","7","0","No","1","0","3853","2017-10-11 15:49:12","124"
"AAJ9TP0YJ9OQ3","caus_thomas_fire_v4","36TFCYNS44BQ5PLKNUF9YICORZHHXK","2","6","0","No","1","0","3414","2017-10-11 15:49:13","125"
"A3IADAHNMIS0AM","caus_thomas_fire_v4","39KFRKBFINWPXBXHW3W115GY5RPOYL","2","3","0","No","1","0","4868","2017-10-11 15:49:13","126"
"A31Q4HFUPE2DXG","caus_thomas_fire_v4","32VNZTT0A75CWHBDZOPYFBHWLDA4RP","1","0","0","No","1","1","4573","2017-10-11 15:49:14","127"
"A35DS4T8H1MWYD","caus_thomas_fire_v4","3Z4GS9HPNVBZXL9HS8PZD6A6B3677D","7","2","0","Yes","1","1","3622","2017-10-11 15:49:14","128"
"A2Z2OV7QGU10QN","caus_thomas_fire_v4","337RC3OW0530NWZFE0TP2P8AS5ILVS","3","2","0","Yes","1","1","3217","2017-10-11 15:49:14","129"
"ARB80JPV0HQ5O","caus_thomas_fire_v4","3A7Y0R2P2OPMWVGABUIUAVS34RLJXR","2","9","0","No","0","1","4124","2017-10-11 15:49:14","130"
"A2R794P3E8X0MK","caus_thomas_fire_v4","37UEWGM5HT9V4IEUC66WHDAT9T0R1Z","9","3","0","Yes","1","1","3860","2017-10-11 15:49:16","131"
"A273DS7TQWR9M1","caus_thomas_fire_v4","33SA9F9TRXVZWFPSNOBHBW14QHJEW8","4","1","0","No","1","0","2940","2017-10-11 15:49:16","132"
"A31Q4HFUPE2DXG","caus_thomas_fire_v4","32VNZTT0A75CWHBDZOPYFBHWLDA4RP","2","4","0","Yes","1","1","2592","2017-10-11 15:49:17","133"
"AY52II1OC5RZ1","caus_thomas_fire_v4","31N2WW6R9RRUBVN08FKLOHB74P3F3K","7","9","0","Yes","1","1","4655","2017-10-11 15:49:18","134"
"A159MC0L7J302O","caus_thomas_fire_v4","3VFJCI1K4Z0S8X4XUPRZO0EZBIJRGZ","2","7","0","Yes","1","1","6697","2017-10-11 15:49:18","135"
"AAJ9TP0YJ9OQ3","caus_thomas_fire_v4","36TFCYNS44BQ5PLKNUF9YICORZHHXK","3","2","0","Yes","1","0","3642","2017-10-11 15:49:18","136"
"A32QBXDPHHSTOD","caus_thomas_fire_v4","33F859I566EJSMIJIYNR9LLW8WTHBB","5","7","0","No","1","0","5676","2017-10-11 15:49:18","137"
"A299CU7U9QX3E7","caus_thomas_fire_v4","3AAPLD8UCCIJO8C0IKEC9FRIE3THT1","0","6","0","No","1","0","4844","2017-10-11 15:49:19","138"
"A1IP7MXZ9M7KOF","caus_thomas_fire_v4","3WMINLGALB4NS42BQS9U3J4ADM3AC0","0","4","0","Yes","1","1","21499","2017-10-11 15:49:19","139"
"A2Z2OV7QGU10QN","caus_thomas_fire_v4","337RC3OW0530NWZFE0TP2P8AS5ILVS","4","0","0","No","1","1","3995","2017-10-11 15:49:19","140"
"A3IADAHNMIS0AM","caus_thomas_fire_v4","39KFRKBFINWPXBXHW3W115GY5RPOYL","3","2","0","Yes","1","0","4486","2017-10-11 15:49:19","141"
"ARB80JPV0HQ5O","caus_thomas_fire_v4","3A7Y0R2P2OPMWVGABUIUAVS34RLJXR","3","7","0","No","0","1","3561","2017-10-11 15:49:19","142"
"A35DS4T8H1MWYD","caus_thomas_fire_v4","3Z4GS9HPNVBZXL9HS8PZD6A6B3677D","8","5","0","Yes","1","1","4004","2017-10-11 15:49:19","143"
"A31Q4HFUPE2DXG","caus_thomas_fire_v4","32VNZTT0A75CWHBDZOPYFBHWLDA4RP","3","1","0","No","1","1","2893","2017-10-11 15:49:21","144"
"A273DS7TQWR9M1","caus_thomas_fire_v4","33SA9F9TRXVZWFPSNOBHBW14QHJEW8","5","2","0","Yes","1","0","4249","2017-10-11 15:49:21","145"
"AMKEGABQMZYIK","caus_thomas_fire_v4","3NL0RFNU0FOQ9DYI94G1EZVIQLGK4C","2","3","0","No","1","0","8457","2017-10-11 15:49:22","146"
"A159MC0L7J302O","caus_thomas_fire_v4","3VFJCI1K4Z0S8X4XUPRZO0EZBIJRGZ","3","8","0","Yes","1","1","3047","2017-10-11 15:49:22","147"
"A2Z2OV7QGU10QN","caus_thomas_fire_v4","337RC3OW0530NWZFE0TP2P8AS5ILVS","5","3","0","Yes","1","1","3014","2017-10-11 15:49:23","148"
"AAJ9TP0YJ9OQ3","caus_thomas_fire_v4","36TFCYNS44BQ5PLKNUF9YICORZHHXK","4","8","0","No","1","0","4641","2017-10-11 15:49:24","149"
"AY52II1OC5RZ1","caus_thomas_fire_v4","31N2WW6R9RRUBVN08FKLOHB74P3F3K","8","7","0","Yes","1","1","4868","2017-10-11 15:49:24","150"
"A35DS4T8H1MWYD","caus_thomas_fire_v4","3Z4GS9HPNVBZXL9HS8PZD6A6B3677D","9","0","0","No","1","1","4380","2017-10-11 15:49:24","151"
"A32QBXDPHHSTOD","caus_thomas_fire_v4","33F859I566EJSMIJIYNR9LLW8WTHBB","6","9","0","No","1","0","5134","2017-10-11 15:49:24","152"
"A3IADAHNMIS0AM","caus_thomas_fire_v4","39KFRKBFINWPXBXHW3W115GY5RPOYL","4","7","0","No","1","0","4702","2017-10-11 15:49:25","153"
"ARB80JPV0HQ5O","caus_thomas_fire_v4","3A7Y0R2P2OPMWVGABUIUAVS34RLJXR","4","5","0","No","0","1","4710","2017-10-11 15:49:25","154"
"A3UCP8QT39UC3","caus_thomas_fire_v4","3KGTPGBS6XMU9VO7Z41FR77I8YIU2N","0","0","0","Yes","0","1","10923","2017-10-11 15:49:25","155"
"A1UX9EWSK062A9","caus_thomas_fire_v4","339ANSOTR53KHKXXUTI58051V3HKIR","0","6","0","No","0","1","7463","2017-10-11 15:49:26","156"
"A31Q4HFUPE2DXG","caus_thomas_fire_v4","32VNZTT0A75CWHBDZOPYFBHWLDA4RP","4","7","0","Yes","1","1","3449","2017-10-11 15:49:26","157"
"A159MC0L7J302O","caus_thomas_fire_v4","3VFJCI1K4Z0S8X4XUPRZO0EZBIJRGZ","4","2","0","Yes","1","1","3369","2017-10-11 15:49:26","158"
"A273DS7TQWR9M1","caus_thomas_fire_v4","33SA9F9TRXVZWFPSNOBHBW14QHJEW8","6","5","0","No","1","0","4374","2017-10-11 15:49:27","159"
"A2Z2OV7QGU10QN","caus_thomas_fire_v4","337RC3OW0530NWZFE0TP2P8AS5ILVS","6","9","0","Yes","1","1","4292","2017-10-11 15:49:28","160"
"AAJ9TP0YJ9OQ3","caus_thomas_fire_v4","36TFCYNS44BQ5PLKNUF9YICORZHHXK","5","7","0","No","1","0","3891","2017-10-11 15:49:28","161"
"A32QBXDPHHSTOD","caus_thomas_fire_v4","33F859I566EJSMIJIYNR9LLW8WTHBB","7","1","0","No","1","0","3183","2017-10-11 15:49:29","162"
"A3IADAHNMIS0AM","caus_thomas_fire_v4","39KFRKBFINWPXBXHW3W115GY5RPOYL","5","0","0","Yes","0","0","3183","2017-10-11 15:49:29","163"
"ARB80JPV0HQ5O","caus_thomas_fire_v4","3A7Y0R2P2OPMWVGABUIUAVS34RLJXR","5","4","0","No","0","1","3152","2017-10-11 15:49:29","164"
"AY52II1OC5RZ1","caus_thomas_fire_v4","31N2WW6R9RRUBVN08FKLOHB74P3F3K","9","6","0","Yes","1","1","4311","2017-10-11 15:49:29","165"
"A159MC0L7J302O","caus_thomas_fire_v4","3VFJCI1K4Z0S8X4XUPRZO0EZBIJRGZ","5","5","0","Yes","1","1","2854","2017-10-11 15:49:30","166"
"A273DS7TQWR9M1","caus_thomas_fire_v4","33SA9F9TRXVZWFPSNOBHBW14QHJEW8","7","0","0","No","1","0","2570","2017-10-11 15:49:30","167"
"A299CU7U9QX3E7","caus_thomas_fire_v4","3AAPLD8UCCIJO8C0IKEC9FRIE3THT1","1","1","0","No","1","0","11084","2017-10-11 15:49:31","168"
"AMKEGABQMZYIK","caus_thomas_fire_v4","3NL0RFNU0FOQ9DYI94G1EZVIQLGK4C","3","1","0","No","1","0","8167","2017-10-11 15:49:31","169"
"A31Q4HFUPE2DXG","caus_thomas_fire_v4","32VNZTT0A75CWHBDZOPYFBHWLDA4RP","5","9","0","Yes","1","1","4591","2017-10-11 15:49:31","170"
"A3UCP8QT39UC3","caus_thomas_fire_v4","3KGTPGBS6XMU9VO7Z41FR77I8YIU2N","1","7","0","Yes","1","1","5610","2017-10-11 15:49:32","171"
"A1UX9EWSK062A9","caus_thomas_fire_v4","339ANSOTR53KHKXXUTI58051V3HKIR","1","5","0","No","0","1","5324","2017-10-11 15:49:32","172"
"A32QBXDPHHSTOD","caus_thomas_fire_v4","33F859I566EJSMIJIYNR9LLW8WTHBB","8","2","0","Yes","1","0","2760","2017-10-11 15:49:32","173"
"A2Z2OV7QGU10QN","caus_thomas_fire_v4","337RC3OW0530NWZFE0TP2P8AS5ILVS","7","7","0","Yes","1","1","3648","2017-10-11 15:49:33","174"
"ARB80JPV0HQ5O","caus_thomas_fire_v4","3A7Y0R2P2OPMWVGABUIUAVS34RLJXR","6","3","0","No","0","1","3369","2017-10-11 15:49:33","175"
"AAJ9TP0YJ9OQ3","caus_thomas_fire_v4","36TFCYNS44BQ5PLKNUF9YICORZHHXK","6","4","0","No","1","0","3904","2017-10-11 15:49:33","176"
"A3IADAHNMIS0AM","caus_thomas_fire_v4","39KFRKBFINWPXBXHW3W115GY5RPOYL","6","9","0","No","1","0","3534","2017-10-11 15:49:33","177"
"A159MC0L7J302O","caus_thomas_fire_v4","3VFJCI1K4Z0S8X4XUPRZO0EZBIJRGZ","6","0","0","No","1","1","2521","2017-10-11 15:49:34","178"
"A31Q4HFUPE2DXG","caus_thomas_fire_v4","32VNZTT0A75CWHBDZOPYFBHWLDA4RP","6","6","0","Yes","1","1","1897","2017-10-11 15:49:34","179"
"A273DS7TQWR9M1","caus_thomas_fire_v4","33SA9F9TRXVZWFPSNOBHBW14QHJEW8","8","8","0","No","1","0","4116","2017-10-11 15:49:36","180"
"A2Z2OV7QGU10QN","caus_thomas_fire_v4","337RC3OW0530NWZFE0TP2P8AS5ILVS","8","6","0","Yes","1","1","2883","2017-10-11 15:49:37","181"
"A32QBXDPHHSTOD","caus_thomas_fire_v4","33F859I566EJSMIJIYNR9LLW8WTHBB","9","0","0","No","1","0","3275","2017-10-11 15:49:37","182"
"A31Q4HFUPE2DXG","caus_thomas_fire_v4","32VNZTT0A75CWHBDZOPYFBHWLDA4RP","7","3","0","Yes","1","1","1599","2017-10-11 15:49:37","183"
"AMKEGABQMZYIK","caus_thomas_fire_v4","3NL0RFNU0FOQ9DYI94G1EZVIQLGK4C","4","4","0","No","1","0","5003","2017-10-11 15:49:37","184"
"A34B40D60FQY9Y","caus_thomas_fire_v4","3NAPMVF0ZWGSBKCBMW84HFTY0NK72X","0","1","0","Yes","0","0","7268","2017-10-11 15:49:37","185"
"A159MC0L7J302O","caus_thomas_fire_v4","3VFJCI1K4Z0S8X4XUPRZO0EZBIJRGZ","7","3","0","Yes","1","1","2808","2017-10-11 15:49:38","186"
"A1IP7MXZ9M7KOF","caus_thomas_fire_v4","3WMINLGALB4NS42BQS9U3J4ADM3AC0","1","9","0","Yes","1","1","17905","2017-10-11 15:49:38","187"
"A299CU7U9QX3E7","caus_thomas_fire_v4","3AAPLD8UCCIJO8C0IKEC9FRIE3THT1","2","7","0","No","1","0","6652","2017-10-11 15:49:38","188"
"A3IADAHNMIS0AM","caus_thomas_fire_v4","39KFRKBFINWPXBXHW3W115GY5RPOYL","7","4","0","No","1","0","4503","2017-10-11 15:49:39","189"
"AAJ9TP0YJ9OQ3","caus_thomas_fire_v4","36TFCYNS44BQ5PLKNUF9YICORZHHXK","7","9","0","No","1","0","4625","2017-10-11 15:49:39","190"
"A1UX9EWSK062A9","caus_thomas_fire_v4","339ANSOTR53KHKXXUTI58051V3HKIR","2","4","0","Yes","1","1","6235","2017-10-11 15:49:39","191"
"A3UCP8QT39UC3","caus_thomas_fire_v4","3KGTPGBS6XMU9VO7Z41FR77I8YIU2N","2","1","0","No","1","1","6674","2017-10-11 15:49:40","192"
"A31Q4HFUPE2DXG","caus_thomas_fire_v4","32VNZTT0A75CWHBDZOPYFBHWLDA4RP","8","2","0","Yes","1","1","2823","2017-10-11 15:49:41","193"
"A2Z2OV7QGU10QN","caus_thomas_fire_v4","337RC3OW0530NWZFE0TP2P8AS5ILVS","9","8","0","Yes","1","1","2874","2017-10-11 15:49:41","194"
"ARB80JPV0HQ5O","caus_thomas_fire_v4","3A7Y0R2P2OPMWVGABUIUAVS34RLJXR","7","2","0","Yes","1","1","6621","2017-10-11 15:49:41","195"
"A273DS7TQWR9M1","caus_thomas_fire_v4","33SA9F9TRXVZWFPSNOBHBW14QHJEW8","9","4","0","No","1","0","4398","2017-10-11 15:49:41","196"
"A159MC0L7J302O","caus_thomas_fire_v4","3VFJCI1K4Z0S8X4XUPRZO0EZBIJRGZ","8","6","0","Yes","1","1","3005","2017-10-11 15:49:42","197"
"A1IP7MXZ9M7KOF","caus_thomas_fire_v4","3WMINLGALB4NS42BQS9U3J4ADM3AC0","2","0","0","No","1","1","3238","2017-10-11 15:49:42","198"
"A3IADAHNMIS0AM","caus_thomas_fire_v4","39KFRKBFINWPXBXHW3W115GY5RPOYL","8","6","0","No","1","0","3091","2017-10-11 15:49:43","199"
"A21UA6O7ZFAIQJ","caus_thomas_fire_v4","31T4R4OBOSH5924DJPXATS2KCEXC7B","0","0","0","No","1","0","3504","2017-10-11 15:49:43","200"
"A31Q4HFUPE2DXG","caus_thomas_fire_v4","32VNZTT0A75CWHBDZOPYFBHWLDA4RP","9","5","0","Yes","1","1","2523","2017-10-11 15:49:44","201"
"AAJ9TP0YJ9OQ3","caus_thomas_fire_v4","36TFCYNS44BQ5PLKNUF9YICORZHHXK","8","5","0","No","1","0","4258","2017-10-11 15:49:44","202"
"A2VQ1WGHLLLNJ1","caus_thomas_fire_v4","3EO896NRAWWFFE7Q6KHXLS7XRVXJT8","0","7","0","Yes","0","0","5949","2017-10-11 15:49:44","203"
"A3UCP8QT39UC3","caus_thomas_fire_v4","3KGTPGBS6XMU9VO7Z41FR77I8YIU2N","3","2","0","Yes","1","1","3977","2017-10-11 15:49:45","204"
"A159MC0L7J302O","caus_thomas_fire_v4","3VFJCI1K4Z0S8X4XUPRZO0EZBIJRGZ","9","4","0","Yes","1","1","2096","2017-10-11 15:49:45","205"
"A1IP7MXZ9M7KOF","caus_thomas_fire_v4","3WMINLGALB4NS42BQS9U3J4ADM3AC0","3","2","0","Yes","1","1","2587","2017-10-11 15:49:45","206"
"A299CU7U9QX3E7","caus_thomas_fire_v4","3AAPLD8UCCIJO8C0IKEC9FRIE3THT1","3","3","0","No","1","0","6250","2017-10-11 15:49:46","207"
"A21UA6O7ZFAIQJ","caus_thomas_fire_v4","31T4R4OBOSH5924DJPXATS2KCEXC7B","1","1","0","No","1","0","1464","2017-10-11 15:49:46","208"
"AHTJJ0KDJ6ZIA","caus_thomas_fire_v4","39JEC7537U27KS591N0QZ6INYW4CV3","0","6","0","No","1","0","5948","2017-10-11 15:49:46","209"
"AMKEGABQMZYIK","caus_thomas_fire_v4","3NL0RFNU0FOQ9DYI94G1EZVIQLGK4C","5","7","0","No","1","0","8578","2017-10-11 15:49:47","210"
"A36Z98CBRZQ2AA","caus_thomas_fire_v4","3BXQMRHWKZZKGZS09MKZ6GLGE3ZUME","0","1","0","Yes","0","1","3844","2017-10-11 15:49:47","211"
"A1UX9EWSK062A9","caus_thomas_fire_v4","339ANSOTR53KHKXXUTI58051V3HKIR","3","1","0","No","1","1","6819","2017-10-11 15:49:47","212"
"A3IADAHNMIS0AM","caus_thomas_fire_v4","39KFRKBFINWPXBXHW3W115GY5RPOYL","9","5","0","No","1","0","3365","2017-10-11 15:49:47","213"
"ARB80JPV0HQ5O","caus_thomas_fire_v4","3A7Y0R2P2OPMWVGABUIUAVS34RLJXR","8","1","0","No","1","1","5474","2017-10-11 15:49:47","214"
"A1E94U14N16SYJ","caus_thomas_fire_v4","3LKC68YZ3A4L862HH2EDG8VIUJPWOU","0","4","0","No","1","0","8584","2017-10-11 15:49:48","215"
"A2VQ1WGHLLLNJ1","caus_thomas_fire_v4","3EO896NRAWWFFE7Q6KHXLS7XRVXJT8","1","1","0","No","1","0","2481","2017-10-11 15:49:48","216"
"A34B40D60FQY9Y","caus_thomas_fire_v4","3NAPMVF0ZWGSBKCBMW84HFTY0NK72X","1","9","0","No","1","0","10176","2017-10-11 15:49:49","217"
"AAJ9TP0YJ9OQ3","caus_thomas_fire_v4","36TFCYNS44BQ5PLKNUF9YICORZHHXK","9","3","0","No","1","0","3449","2017-10-11 15:49:49","218"
"A3UCP8QT39UC3","caus_thomas_fire_v4","3KGTPGBS6XMU9VO7Z41FR77I8YIU2N","4","8","0","No","0","1","4211","2017-10-11 15:49:50","219"
"A21UA6O7ZFAIQJ","caus_thomas_fire_v4","31T4R4OBOSH5924DJPXATS2KCEXC7B","2","9","0","No","1","0","3831","2017-10-11 15:49:50","220"
"A36Z98CBRZQ2AA","caus_thomas_fire_v4","3BXQMRHWKZZKGZS09MKZ6GLGE3ZUME","1","3","0","Yes","1","1","3019","2017-10-11 15:49:51","221"
"A1IP7MXZ9M7KOF","caus_thomas_fire_v4","3WMINLGALB4NS42BQS9U3J4ADM3AC0","4","3","0","Yes","1","1","4339","2017-10-11 15:49:51","222"
"AMKEGABQMZYIK","caus_thomas_fire_v4","3NL0RFNU0FOQ9DYI94G1EZVIQLGK4C","6","9","0","No","1","0","3282","2017-10-11 15:49:51","223"
"ARB80JPV0HQ5O","caus_thomas_fire_v4","3A7Y0R2P2OPMWVGABUIUAVS34RLJXR","9","0","0","No","1","1","2409","2017-10-11 15:49:51","224"
"A1IWJS2NY2FAE","caus_thomas_fire_v4","33LKR6A5KEL8KXRMGVBRHSBBXEX1TM","0","7","0","Yes","1","1","25122","2017-10-11 15:49:51","225"
"A299CU7U9QX3E7","caus_thomas_fire_v4","3AAPLD8UCCIJO8C0IKEC9FRIE3THT1","4","0","0","No","1","0","4638","2017-10-11 15:49:51","226"
"A2VQ1WGHLLLNJ1","caus_thomas_fire_v4","3EO896NRAWWFFE7Q6KHXLS7XRVXJT8","2","2","0","Yes","1","0","2188","2017-10-11 15:49:51","227"
"A10GZ0SWBZIRBK","caus_thomas_fire_v4","32SCWG5HIH55ZRZC5KEO7E1VGMSP63","0","6","0","No","1","0","3735","2017-10-11 15:49:52","228"
"A1LL9TE7T53Y1P","caus_thomas_fire_v4","373ERPL3YO9WD2Q3EPQ6NJTO1CRRT8","0","0","0","No","1","1","7688","2017-10-11 15:49:53","229"
"A1UX9EWSK062A9","caus_thomas_fire_v4","339ANSOTR53KHKXXUTI58051V3HKIR","4","2","0","Yes","1","1","5203","2017-10-11 15:49:53","230"
"A3UCP8QT39UC3","caus_thomas_fire_v4","3KGTPGBS6XMU9VO7Z41FR77I8YIU2N","5","4","0","Yes","1","1","2571","2017-10-11 15:49:53","231"
"A39C210BKD7YNN","caus_thomas_fire_v4","3NS0A6KXC491AOQO46LCA3GYKZ2ZG0","0","4","0","Yes","1","1","7730","2017-10-11 15:49:54","232"
"AHTJJ0KDJ6ZIA","caus_thomas_fire_v4","39JEC7537U27KS591N0QZ6INYW4CV3","1","7","0","No","1","0","7172","2017-10-11 15:49:54","233"
"A1IP7MXZ9M7KOF","caus_thomas_fire_v4","3WMINLGALB4NS42BQS9U3J4ADM3AC0","5","8","0","Yes","1","1","2405","2017-10-11 15:49:54","234"
"A1IWJS2NY2FAE","caus_thomas_fire_v4","33LKR6A5KEL8KXRMGVBRHSBBXEX1TM","1","4","0","Yes","1","1","3887","2017-10-11 15:49:55","235"
"A2VQ1WGHLLLNJ1","caus_thomas_fire_v4","3EO896NRAWWFFE7Q6KHXLS7XRVXJT8","3","6","0","Yes","0","0","2744","2017-10-11 15:49:55","236"
"A36Z98CBRZQ2AA","caus_thomas_fire_v4","3BXQMRHWKZZKGZS09MKZ6GLGE3ZUME","2","5","0","Yes","1","1","3716","2017-10-11 15:49:55","237"
"A35JZAZK1L9D3Z","caus_thomas_fire_v4","3OSWBBLG1EY9T9GI1YWJ7XXQZ7OXDR","0","2","0","Yes","1","1","4566","2017-10-11 15:49:56","238"
"A34B40D60FQY9Y","caus_thomas_fire_v4","3NAPMVF0ZWGSBKCBMW84HFTY0NK72X","2","6","0","No","1","0","6498","2017-10-11 15:49:56","239"
"AMKEGABQMZYIK","caus_thomas_fire_v4","3NL0RFNU0FOQ9DYI94G1EZVIQLGK4C","7","8","0","No","1","0","4516","2017-10-11 15:49:56","240"
"A299CU7U9QX3E7","caus_thomas_fire_v4","3AAPLD8UCCIJO8C0IKEC9FRIE3THT1","5","9","0","No","1","0","4428","2017-10-11 15:49:57","241"
"A3UCP8QT39UC3","caus_thomas_fire_v4","3KGTPGBS6XMU9VO7Z41FR77I8YIU2N","6","9","0","No","0","1","2219","2017-10-11 15:49:57","242"
"A2VQ1WGHLLLNJ1","caus_thomas_fire_v4","3EO896NRAWWFFE7Q6KHXLS7XRVXJT8","4","9","0","Yes","0","0","1415","2017-10-11 15:49:57","243"
"A1E94U14N16SYJ","caus_thomas_fire_v4","3LKC68YZ3A4L862HH2EDG8VIUJPWOU","1","3","0","Yes","0","0","9310","2017-10-11 15:49:58","244"
"A10GZ0SWBZIRBK","caus_thomas_fire_v4","32SCWG5HIH55ZRZC5KEO7E1VGMSP63","1","2","0","Yes","1","0","5733","2017-10-11 15:49:59","245"
"A36Z98CBRZQ2AA","caus_thomas_fire_v4","3BXQMRHWKZZKGZS09MKZ6GLGE3ZUME","3","8","0","Yes","1","1","2989","2017-10-11 15:49:59","246"
"A2VQ1WGHLLLNJ1","caus_thomas_fire_v4","3EO896NRAWWFFE7Q6KHXLS7XRVXJT8","5","4","0","Yes","0","0","1069","2017-10-11 15:49:59","247"
"A1UX9EWSK062A9","caus_thomas_fire_v4","339ANSOTR53KHKXXUTI58051V3HKIR","5","3","0","No","0","1","5395","2017-10-11 15:50:00","248"
"A1LL9TE7T53Y1P","caus_thomas_fire_v4","373ERPL3YO9WD2Q3EPQ6NJTO1CRRT8","1","2","0","Yes","1","1","5551","2017-10-11 15:50:00","249"
"A27ZE20JZ3VDUP","caus_thomas_fire_v4","358UUM7WRZ49F4TW1MN5IN16CF0R7W","0","8","0","Yes","0","0","4668","2017-10-11 15:50:00","250"
"A35JZAZK1L9D3Z","caus_thomas_fire_v4","3OSWBBLG1EY9T9GI1YWJ7XXQZ7OXDR","1","1","0","No","1","1","3383","2017-10-11 15:50:00","251"
"A3UCP8QT39UC3","caus_thomas_fire_v4","3KGTPGBS6XMU9VO7Z41FR77I8YIU2N","7","6","0","Yes","1","1","2426","2017-10-11 15:50:00","252"
"A2VQ1WGHLLLNJ1","caus_thomas_fire_v4","3EO896NRAWWFFE7Q6KHXLS7XRVXJT8","6","3","0","Yes","0","0","1218","2017-10-11 15:50:02","253"
"A36CZ0F88ELFWF","caus_thomas_fire_v4","3M23Y66PO282CJF4X1II2J6636ZS6M","0","9","0","Yes","1","1","5287","2017-10-11 15:50:02","254"
"AHTJJ0KDJ6ZIA","caus_thomas_fire_v4","39JEC7537U27KS591N0QZ6INYW4CV3","2","9","0","No","1","0","7560","2017-10-11 15:50:03","255"
"A27ZE20JZ3VDUP","caus_thomas_fire_v4","358UUM7WRZ49F4TW1MN5IN16CF0R7W","1","4","0","No","1","0","1774","2017-10-11 15:50:03","256"
"A299CU7U9QX3E7","caus_thomas_fire_v4","3AAPLD8UCCIJO8C0IKEC9FRIE3THT1","6","2","0","Yes","1","0","5157","2017-10-11 15:50:03","257"
"A3UCP8QT39UC3","caus_thomas_fire_v4","3KGTPGBS6XMU9VO7Z41FR77I8YIU2N","8","3","0","No","0","1","1939","2017-10-11 15:50:03","258"
"A39C210BKD7YNN","caus_thomas_fire_v4","3NS0A6KXC491AOQO46LCA3GYKZ2ZG0","1","1","0","No","1","1","8354","2017-10-11 15:50:03","259"
"A1IWJS2NY2FAE","caus_thomas_fire_v4","33LKR6A5KEL8KXRMGVBRHSBBXEX1TM","2","0","0","No","1","1","7478","2017-10-11 15:50:03","260"
"A34B40D60FQY9Y","caus_thomas_fire_v4","3NAPMVF0ZWGSBKCBMW84HFTY0NK72X","3","7","0","No","1","0","6330","2017-10-11 15:50:04","261"
"A1E94U14N16SYJ","caus_thomas_fire_v4","3LKC68YZ3A4L862HH2EDG8VIUJPWOU","2","2","0","Yes","1","0","4607","2017-10-11 15:50:04","262"
"A2VQ1WGHLLLNJ1","caus_thomas_fire_v4","3EO896NRAWWFFE7Q6KHXLS7XRVXJT8","7","8","0","Yes","0","0","890","2017-10-11 15:50:04","263"
"A36Z98CBRZQ2AA","caus_thomas_fire_v4","3BXQMRHWKZZKGZS09MKZ6GLGE3ZUME","4","9","0","Yes","1","1","3229","2017-10-11 15:50:04","264"
"A35JZAZK1L9D3Z","caus_thomas_fire_v4","3OSWBBLG1EY9T9GI1YWJ7XXQZ7OXDR","2","9","0","Yes","1","1","3025","2017-10-11 15:50:04","265"
"A1IP7MXZ9M7KOF","caus_thomas_fire_v4","3WMINLGALB4NS42BQS9U3J4ADM3AC0","6","7","0","Yes","1","1","8918","2017-10-11 15:50:04","266"
"A21UA6O7ZFAIQJ","caus_thomas_fire_v4","31T4R4OBOSH5924DJPXATS2KCEXC7B","3","5","0","No","1","0","13148","2017-10-11 15:50:05","267"
"A1LL9TE7T53Y1P","caus_thomas_fire_v4","373ERPL3YO9WD2Q3EPQ6NJTO1CRRT8","2","8","0","Yes","1","1","4106","2017-10-11 15:50:05","268"
"A2VQ1WGHLLLNJ1","caus_thomas_fire_v4","3EO896NRAWWFFE7Q6KHXLS7XRVXJT8","8","5","0","Yes","0","0","757","2017-10-11 15:50:05","269"
"A27ZE20JZ3VDUP","caus_thomas_fire_v4","358UUM7WRZ49F4TW1MN5IN16CF0R7W","2","3","0","No","1","0","1862","2017-10-11 15:50:05","270"
"A1UX9EWSK062A9","caus_thomas_fire_v4","339ANSOTR53KHKXXUTI58051V3HKIR","6","9","0","No","0","1","5311","2017-10-11 15:50:06","271"
"A10GZ0SWBZIRBK","caus_thomas_fire_v4","32SCWG5HIH55ZRZC5KEO7E1VGMSP63","2","1","0","No","1","0","6292","2017-10-11 15:50:06","272"
"AMKEGABQMZYIK","caus_thomas_fire_v4","3NL0RFNU0FOQ9DYI94G1EZVIQLGK4C","8","2","0","Yes","1","0","8718","2017-10-11 15:50:06","273"
"A362C46X7UDVNC","caus_thomas_fire_v4","3IKZ72A5B4H1FZGAQY40XV9D96UFN0","0","3","0","No","1","0","8882","2017-10-11 15:50:07","274"
"A1IP7MXZ9M7KOF","caus_thomas_fire_v4","3WMINLGALB4NS42BQS9U3J4ADM3AC0","7","1","0","No","1","1","2016","2017-10-11 15:50:07","275"
"A1CUK9RG3RW1DY","caus_thomas_fire_v4","36V4Q8R5ZK1SO6LJSD0UWFORBITMQ1","0","0","0","No","1","1","6690","2017-10-11 15:50:07","276"
"A36CZ0F88ELFWF","caus_thomas_fire_v4","3M23Y66PO282CJF4X1II2J6636ZS6M","1","3","0","Yes","1","1","4656","2017-10-11 15:50:07","277"
"A3UCP8QT39UC3","caus_thomas_fire_v4","3KGTPGBS6XMU9VO7Z41FR77I8YIU2N","9","5","0","No","0","1","3745","2017-10-11 15:50:08","278"
"A36Z98CBRZQ2AA","caus_thomas_fire_v4","3BXQMRHWKZZKGZS09MKZ6GLGE3ZUME","5","4","0","Yes","1","1","3285","2017-10-11 15:50:08","279"
"A35JZAZK1L9D3Z","caus_thomas_fire_v4","3OSWBBLG1EY9T9GI1YWJ7XXQZ7OXDR","3","5","0","Yes","1","1","2925","2017-10-11 15:50:08","280"
"A21UA6O7ZFAIQJ","caus_thomas_fire_v4","31T4R4OBOSH5924DJPXATS2KCEXC7B","4","8","0","No","1","0","3189","2017-10-11 15:50:09","281"
"A34B40D60FQY9Y","caus_thomas_fire_v4","3NAPMVF0ZWGSBKCBMW84HFTY0NK72X","4","0","0","Yes","0","0","4813","2017-10-11 15:50:09","282"
"A1IWJS2NY2FAE","caus_thomas_fire_v4","33LKR6A5KEL8KXRMGVBRHSBBXEX1TM","3","6","0","Yes","1","1","4226","2017-10-11 15:50:09","283"
"A2VQ1WGHLLLNJ1","caus_thomas_fire_v4","3EO896NRAWWFFE7Q6KHXLS7XRVXJT8","9","0","0","Yes","0","0","3116","2017-10-11 15:50:10","284"
"A39C210BKD7YNN","caus_thomas_fire_v4","3NS0A6KXC491AOQO46LCA3GYKZ2ZG0","2","3","0","Yes","1","1","5547","2017-10-11 15:50:10","285"
"A1IP7MXZ9M7KOF","caus_thomas_fire_v4","3WMINLGALB4NS42BQS9U3J4ADM3AC0","8","6","0","Yes","1","1","1744","2017-10-11 15:50:10","286"
"A299CU7U9QX3E7","caus_thomas_fire_v4","3AAPLD8UCCIJO8C0IKEC9FRIE3THT1","7","5","0","No","1","0","6341","2017-10-11 15:50:10","287"
"A1LL9TE7T53Y1P","caus_thomas_fire_v4","373ERPL3YO9WD2Q3EPQ6NJTO1CRRT8","3","5","0","Yes","1","1","4652","2017-10-11 15:50:10","288"
"AHTJJ0KDJ6ZIA","caus_thomas_fire_v4","39JEC7537U27KS591N0QZ6INYW4CV3","3","5","0","No","1","0","6956","2017-10-11 15:50:11","289"
"A3SBDWO5M0G2L0","caus_thomas_fire_v4","3YZ8UPK3VTN77DG9WXQL3KG4KPVUCW","0","6","0","Yes","1","1","7940","2017-10-11 15:50:11","290"
"A36Z98CBRZQ2AA","caus_thomas_fire_v4","3BXQMRHWKZZKGZS09MKZ6GLGE3ZUME","6","6","0","Yes","1","1","1733","2017-10-11 15:50:11","291"
"A1E94U14N16SYJ","caus_thomas_fire_v4","3LKC68YZ3A4L862HH2EDG8VIUJPWOU","3","1","0","Yes","0","0","6032","2017-10-11 15:50:11","292"
"A10GZ0SWBZIRBK","caus_thomas_fire_v4","32SCWG5HIH55ZRZC5KEO7E1VGMSP63","3","8","0","No","1","0","3815","2017-10-11 15:50:11","293"
"A35JZAZK1L9D3Z","caus_thomas_fire_v4","3OSWBBLG1EY9T9GI1YWJ7XXQZ7OXDR","4","3","0","Yes","1","1","2987","2017-10-11 15:50:12","294"
"AMKEGABQMZYIK","caus_thomas_fire_v4","3NL0RFNU0FOQ9DYI94G1EZVIQLGK4C","9","0","0","No","1","0","5126","2017-10-11 15:50:12","295"
"A36CZ0F88ELFWF","caus_thomas_fire_v4","3M23Y66PO282CJF4X1II2J6636ZS6M","2","1","0","No","1","1","3998","2017-10-11 15:50:12","296"
"A1IP7MXZ9M7KOF","caus_thomas_fire_v4","3WMINLGALB4NS42BQS9U3J4ADM3AC0","9","5","0","Yes","1","1","1673","2017-10-11 15:50:12","297"
"A21UA6O7ZFAIQJ","caus_thomas_fire_v4","31T4R4OBOSH5924DJPXATS2KCEXC7B","5","7","0","No","1","0","3387","2017-10-11 15:50:13","298"
"A1IWJS2NY2FAE","caus_thomas_fire_v4","33LKR6A5KEL8KXRMGVBRHSBBXEX1TM","4","2","0","Yes","1","1","4197","2017-10-11 15:50:13","299"
"APJJ1HHD2GGFS
","caus_thomas_fire_v4","3OLF68YTN92UVGMLHUZVBPPDAZVFAG","0","2","0","Yes","1","1","5872","2017-10-11 15:50:14","300"
"A36Z98CBRZQ2AA","caus_thomas_fire_v4","3BXQMRHWKZZKGZS09MKZ6GLGE3ZUME","7","2","0","Yes","1","1","2589","2017-10-11 15:50:14","301"
"A1UX9EWSK062A9","caus_thomas_fire_v4","339ANSOTR53KHKXXUTI58051V3HKIR","7","8","0","No","0","1","7542","2017-10-11 15:50:14","302"
"A2AGDF3VY0L1QP","caus_thomas_fire_v4","3O6CYIULED2GLBMEDOQMFEN7C5DUW5","0","5","0","No","0","1","3834","2017-10-11 15:50:15","303"
"A1CUK9RG3RW1DY","caus_thomas_fire_v4","36V4Q8R5ZK1SO6LJSD0UWFORBITMQ1","1","4","0","Yes","1","1","6539","2017-10-11 15:50:15","304"
"A10GZ0SWBZIRBK","caus_thomas_fire_v4","32SCWG5HIH55ZRZC5KEO7E1VGMSP63","4","9","0","No","1","0","3619","2017-10-11 15:50:15","305"
"A35JZAZK1L9D3Z","caus_thomas_fire_v4","3OSWBBLG1EY9T9GI1YWJ7XXQZ7OXDR","5","4","0","Yes","1","1","2855","2017-10-11 15:50:16","306"
"A299CU7U9QX3E7","caus_thomas_fire_v4","3AAPLD8UCCIJO8C0IKEC9FRIE3THT1","8","8","0","No","1","0","4741","2017-10-11 15:50:16","307"
"A1LL9TE7T53Y1P","caus_thomas_fire_v4","373ERPL3YO9WD2Q3EPQ6NJTO1CRRT8","4","4","0","Yes","1","1","4499","2017-10-11 15:50:16","308"
"A362C46X7UDVNC","caus_thomas_fire_v4","3IKZ72A5B4H1FZGAQY40XV9D96UFN0","1","7","0","No","1","0","8318","2017-10-11 15:50:16","309"
"A39C210BKD7YNN","caus_thomas_fire_v4","3NS0A6KXC491AOQO46LCA3GYKZ2ZG0","3","5","0","Yes","1","1","5490","2017-10-11 15:50:16","310"
"A1E94U14N16SYJ","caus_thomas_fire_v4","3LKC68YZ3A4L862HH2EDG8VIUJPWOU","4","9","0","Yes","0","0","4431","2017-10-11 15:50:16","311"
"A21UA6O7ZFAIQJ","caus_thomas_fire_v4","31T4R4OBOSH5924DJPXATS2KCEXC7B","6","6","0","No","1","0","2406","2017-10-11 15:50:17","312"
"A36Z98CBRZQ2AA","caus_thomas_fire_v4","3BXQMRHWKZZKGZS09MKZ6GLGE3ZUME","8","7","0","Yes","1","1","3309","2017-10-11 15:50:19","313"
"AM4RUMMB8CE8L","caus_thomas_fire_v4","3Z7EFSHGN9FZOHA41218NRF8E7CXCR","0","4","0","Yes","1","1","5132","2017-10-11 15:50:19","314"
"A2AGDF3VY0L1QP","caus_thomas_fire_v4","3O6CYIULED2GLBMEDOQMFEN7C5DUW5","1","4","0","No","0","1","3553","2017-10-11 15:50:19","315"
"APJJ1HHD2GGFS
","caus_thomas_fire_v4","3OLF68YTN92UVGMLHUZVBPPDAZVFAG","1","1","0","Yes","0","1","4664","2017-10-11 15:50:20","316"
"A36CZ0F88ELFWF","caus_thomas_fire_v4","3M23Y66PO282CJF4X1II2J6636ZS6M","3","6","0","Yes","1","1","6293","2017-10-11 15:50:20","317"
"A35JZAZK1L9D3Z","caus_thomas_fire_v4","3OSWBBLG1EY9T9GI1YWJ7XXQZ7OXDR","6","0","0","No","1","1","2881","2017-10-11 15:50:20","318"
"A1IWJS2NY2FAE","caus_thomas_fire_v4","33LKR6A5KEL8KXRMGVBRHSBBXEX1TM","5","8","0","Yes","1","1","3555","2017-10-11 15:50:20","319"
"A10GZ0SWBZIRBK","caus_thomas_fire_v4","32SCWG5HIH55ZRZC5KEO7E1VGMSP63","5","4","0","No","1","0","3415","2017-10-11 15:50:20","320"
"A21UA6O7ZFAIQJ","caus_thomas_fire_v4","31T4R4OBOSH5924DJPXATS2KCEXC7B","7","3","0","No","1","0","2457","2017-10-11 15:50:20","321"
"A34B40D60FQY9Y","caus_thomas_fire_v4","3NAPMVF0ZWGSBKCBMW84HFTY0NK72X","5","5","0","No","1","0","10201","2017-10-11 15:50:20","322"
"A299CU7U9QX3E7","caus_thomas_fire_v4","3AAPLD8UCCIJO8C0IKEC9FRIE3THT1","9","4","0","No","1","0","3909","2017-10-11 15:50:21","323"
"A1UX9EWSK062A9","caus_thomas_fire_v4","339ANSOTR53KHKXXUTI58051V3HKIR","8","0","0","No","1","1","5372","2017-10-11 15:50:21","324"
"A1IWJS2NY2FAE","caus_thomas_fire_v4","33LKR6A5KEL8KXRMGVBRHSBBXEX1TM","6","1","0","No","1","1","1955","2017-10-11 15:50:21","325"
"A1CUK9RG3RW1DY","caus_thomas_fire_v4","36V4Q8R5ZK1SO6LJSD0UWFORBITMQ1","2","3","0","Yes","1","1","5657","2017-10-11 15:50:21","326"
"AHTJJ0KDJ6ZIA","caus_thomas_fire_v4","39JEC7537U27KS591N0QZ6INYW4CV3","4","0","0","No","1","0","10060","2017-10-11 15:50:22","327"
"A39C210BKD7YNN","caus_thomas_fire_v4","3NS0A6KXC491AOQO46LCA3GYKZ2ZG0","4","0","0","No","1","1","4789","2017-10-11 15:50:22","328"
"A1E94U14N16SYJ","caus_thomas_fire_v4","3LKC68YZ3A4L862HH2EDG8VIUJPWOU","5","5","0","Yes","0","0","5178","2017-10-11 15:50:22","329"
"A36Z98CBRZQ2AA","caus_thomas_fire_v4","3BXQMRHWKZZKGZS09MKZ6GLGE3ZUME","9","0","0","Yes","0","1","2748","2017-10-11 15:50:22","330"
"A21UA6O7ZFAIQJ","caus_thomas_fire_v4","31T4R4OBOSH5924DJPXATS2KCEXC7B","8","4","0","No","1","0","2027","2017-10-11 15:50:23","331"
"A1LL9TE7T53Y1P","caus_thomas_fire_v4","373ERPL3YO9WD2Q3EPQ6NJTO1CRRT8","5","3","0","Yes","1","1","6853","2017-10-11 15:50:24","332"
"AM4RUMMB8CE8L","caus_thomas_fire_v4","3Z7EFSHGN9FZOHA41218NRF8E7CXCR","1","2","0","Yes","1","1","4585","2017-10-11 15:50:24","333"
"A362C46X7UDVNC","caus_thomas_fire_v4","3IKZ72A5B4H1FZGAQY40XV9D96UFN0","2","0","0","No","1","0","7535","2017-10-11 15:50:24","334"
"APJJ1HHD2GGFS
","caus_thomas_fire_v4","3OLF68YTN92UVGMLHUZVBPPDAZVFAG","2","0","0","Yes","0","1","3920","2017-10-11 15:50:25","335"
"A1IWJS2NY2FAE","caus_thomas_fire_v4","33LKR6A5KEL8KXRMGVBRHSBBXEX1TM","7","9","0","Yes","1","1","2807","2017-10-11 15:50:25","336"
"A10GZ0SWBZIRBK","caus_thomas_fire_v4","32SCWG5HIH55ZRZC5KEO7E1VGMSP63","6","3","0","No","1","0","4112","2017-10-11 15:50:25","337"
"A2AGDF3VY0L1QP","caus_thomas_fire_v4","3O6CYIULED2GLBMEDOQMFEN7C5DUW5","2","9","0","No","0","1","4957","2017-10-11 15:50:25","338"
"A35JZAZK1L9D3Z","caus_thomas_fire_v4","3OSWBBLG1EY9T9GI1YWJ7XXQZ7OXDR","7","7","0","Yes","1","1","5581","2017-10-11 15:50:26","339"
"AI9NJ89EXVDY1","caus_thomas_fire_v4","35BLDD71I6YKSLGJT1KYA4J87EQZVP","0","5","0","No","1","0","5143","2017-10-11 15:50:26","340"
"A1E94U14N16SYJ","caus_thomas_fire_v4","3LKC68YZ3A4L862HH2EDG8VIUJPWOU","6","0","0","Yes","0","0","3243","2017-10-11 15:50:26","341"
"A34B40D60FQY9Y","caus_thomas_fire_v4","3NAPMVF0ZWGSBKCBMW84HFTY0NK72X","6","8","0","No","1","0","5022","2017-10-11 15:50:27","342"
"A1UX9EWSK062A9","caus_thomas_fire_v4","339ANSOTR53KHKXXUTI58051V3HKIR","9","7","0","No","0","1","5124","2017-10-11 15:50:27","343"
"A1CUK9RG3RW1DY","caus_thomas_fire_v4","36V4Q8R5ZK1SO6LJSD0UWFORBITMQ1","3","2","0","Yes","1","1","4751","2017-10-11 15:50:27","344"
"A36CZ0F88ELFWF","caus_thomas_fire_v4","3M23Y66PO282CJF4X1II2J6636ZS6M","4","5","0","Yes","1","1","6619","2017-10-11 15:50:27","345"
"A21UA6O7ZFAIQJ","caus_thomas_fire_v4","31T4R4OBOSH5924DJPXATS2KCEXC7B","9","2","0","Yes","1","0","3278","2017-10-11 15:50:27","346"
"AHTJJ0KDJ6ZIA","caus_thomas_fire_v4","39JEC7537U27KS591N0QZ6INYW4CV3","5","3","0","No","1","0","5450","2017-10-11 15:50:28","347"
"AM4RUMMB8CE8L","caus_thomas_fire_v4","3Z7EFSHGN9FZOHA41218NRF8E7CXCR","2","3","0","Yes","1","1","3033","2017-10-11 15:50:28","348"
"A3HPPDI53JMPW","caus_thomas_fire_v4","3PPTZCWALQLSNDK272QO4HK0QMBZQV","0","8","0","No","1","0","10724","2017-10-11 15:50:29","349"
"A10GZ0SWBZIRBK","caus_thomas_fire_v4","32SCWG5HIH55ZRZC5KEO7E1VGMSP63","7","0","0","No","1","0","3489","2017-10-11 15:50:29","350"
"A2AGDF3VY0L1QP","caus_thomas_fire_v4","3O6CYIULED2GLBMEDOQMFEN7C5DUW5","3","1","0","No","1","1","3299","2017-10-11 15:50:29","351"
"A1LL9TE7T53Y1P","caus_thomas_fire_v4","373ERPL3YO9WD2Q3EPQ6NJTO1CRRT8","6","9","0","Yes","1","1","4713","2017-10-11 15:50:29","352"
"A1IWJS2NY2FAE","caus_thomas_fire_v4","33LKR6A5KEL8KXRMGVBRHSBBXEX1TM","8","5","0","Yes","1","1","3830","2017-10-11 15:50:30","353"
"APJJ1HHD2GGFS
","caus_thomas_fire_v4","3OLF68YTN92UVGMLHUZVBPPDAZVFAG","3","8","0","Yes","1","1","4316","2017-10-11 15:50:30","354"
"A39C210BKD7YNN","caus_thomas_fire_v4","3NS0A6KXC491AOQO46LCA3GYKZ2ZG0","5","2","0","Yes","1","1","7906","2017-10-11 15:50:31","355"
"AM4RUMMB8CE8L","caus_thomas_fire_v4","3Z7EFSHGN9FZOHA41218NRF8E7CXCR","3","5","0","Yes","1","1","3216","2017-10-11 15:50:33","356"
"A36CZ0F88ELFWF","caus_thomas_fire_v4","3M23Y66PO282CJF4X1II2J6636ZS6M","5","7","0","Yes","1","1","4518","2017-10-11 15:50:33","357"
"A1E94U14N16SYJ","caus_thomas_fire_v4","3LKC68YZ3A4L862HH2EDG8VIUJPWOU","7","8","0","Yes","0","0","5265","2017-10-11 15:50:33","358"
"A1CUK9RG3RW1DY","caus_thomas_fire_v4","36V4Q8R5ZK1SO6LJSD0UWFORBITMQ1","4","6","0","Yes","1","1","4989","2017-10-11 15:50:33","359"
"A3EEMZ0K3T47QZ","caus_thomas_fire_v4","3X31TUMD7XNK1KJH7M90V11U31B1LJ","0","4","0","No","1","0","3628","2017-10-11 15:50:33","360"
"AHTJJ0KDJ6ZIA","caus_thomas_fire_v4","39JEC7537U27KS591N0QZ6INYW4CV3","6","8","0","No","1","0","4162","2017-10-11 15:50:33","361"
"A362C46X7UDVNC","caus_thomas_fire_v4","3IKZ72A5B4H1FZGAQY40XV9D96UFN0","3","5","0","No","1","0","7755","2017-10-11 15:50:33","362"
"A2AGDF3VY0L1QP","caus_thomas_fire_v4","3O6CYIULED2GLBMEDOQMFEN7C5DUW5","4","3","0","No","0","1","3282","2017-10-11 15:50:34","363"
"A1IWJS2NY2FAE","caus_thomas_fire_v4","33LKR6A5KEL8KXRMGVBRHSBBXEX1TM","9","3","0","Yes","1","1","3076","2017-10-11 15:50:34","364"
"A1LL9TE7T53Y1P","caus_thomas_fire_v4","373ERPL3YO9WD2Q3EPQ6NJTO1CRRT8","7","6","0","Yes","1","1","3730","2017-10-11 15:50:34","365"
"A34B40D60FQY9Y","caus_thomas_fire_v4","3NAPMVF0ZWGSBKCBMW84HFTY0NK72X","7","2","0","Yes","1","0","6832","2017-10-11 15:50:34","366"
"A10GZ0SWBZIRBK","caus_thomas_fire_v4","32SCWG5HIH55ZRZC5KEO7E1VGMSP63","8","5","0","No","1","0","4458","2017-10-11 15:50:35","367"
"APJJ1HHD2GGFS
","caus_thomas_fire_v4","3OLF68YTN92UVGMLHUZVBPPDAZVFAG","4","3","0","Yes","1","1","4192","2017-10-11 15:50:35","368"
"AI9NJ89EXVDY1","caus_thomas_fire_v4","35BLDD71I6YKSLGJT1KYA4J87EQZVP","1","2","0","Yes","1","0","8719","2017-10-11 15:50:36","369"
"A39C210BKD7YNN","caus_thomas_fire_v4","3NS0A6KXC491AOQO46LCA3GYKZ2ZG0","6","6","0","Yes","1","1","4696","2017-10-11 15:50:36","370"
"A27ZE20JZ3VDUP","caus_thomas_fire_v4","358UUM7WRZ49F4TW1MN5IN16CF0R7W","3","7","0","Yes","0","0","29909","2017-10-11 15:50:37","371"
"A3EEMZ0K3T47QZ","caus_thomas_fire_v4","3X31TUMD7XNK1KJH7M90V11U31B1LJ","1","7","0","No","1","0","2702","2017-10-11 15:50:37","372"
"A2AGDF3VY0L1QP","caus_thomas_fire_v4","3O6CYIULED2GLBMEDOQMFEN7C5DUW5","5","8","0","No","0","1","2221","2017-10-11 15:50:37","373"
"A36CZ0F88ELFWF","caus_thomas_fire_v4","3M23Y66PO282CJF4X1II2J6636ZS6M","6","4","0","Yes","1","1","3550","2017-10-11 15:50:37","374"
"A35JZAZK1L9D3Z","caus_thomas_fire_v4","3OSWBBLG1EY9T9GI1YWJ7XXQZ7OXDR","8","6","0","Yes","1","1","10680","2017-10-11 15:50:38","375"
"A2TTRW1EE029C7
A2TTRW1EE029C7","caus_thomas_fire_v4","3AAJC4I4FGTB1QGPCC6F7G8ECRJZJ4","0","9","0","Yes","1","1","5412","2017-10-11 15:50:38","376"
"A1CUK9RG3RW1DY","caus_thomas_fire_v4","36V4Q8R5ZK1SO6LJSD0UWFORBITMQ1","5","8","0","Yes","1","1","4075","2017-10-11 15:50:38","377"
"A27ZE20JZ3VDUP","caus_thomas_fire_v4","358UUM7WRZ49F4TW1MN5IN16CF0R7W","4","5","0","Yes","0","0","939","2017-10-11 15:50:39","378"
"A10GZ0SWBZIRBK","caus_thomas_fire_v4","32SCWG5HIH55ZRZC5KEO7E1VGMSP63","9","7","0","No","1","0","2971","2017-10-11 15:50:39","379"
"A1LL9TE7T53Y1P","caus_thomas_fire_v4","373ERPL3YO9WD2Q3EPQ6NJTO1CRRT8","8","1","0","No","1","1","3687","2017-10-11 15:50:39","380"
"AHTJJ0KDJ6ZIA","caus_thomas_fire_v4","39JEC7537U27KS591N0QZ6INYW4CV3","7","1","0","No","1","0","4972","2017-10-11 15:50:39","381"
"APJJ1HHD2GGFS
","caus_thomas_fire_v4","3OLF68YTN92UVGMLHUZVBPPDAZVFAG","5","4","0","Yes","1","1","3610","2017-10-11 15:50:40","382"
"AM4RUMMB8CE8L","caus_thomas_fire_v4","3Z7EFSHGN9FZOHA41218NRF8E7CXCR","4","0","0","No","1","1","6370","2017-10-11 15:50:40","383"
"A362C46X7UDVNC","caus_thomas_fire_v4","3IKZ72A5B4H1FZGAQY40XV9D96UFN0","4","1","0","No","1","0","6193","2017-10-11 15:50:40","384"
"A34B40D60FQY9Y","caus_thomas_fire_v4","3NAPMVF0ZWGSBKCBMW84HFTY0NK72X","8","3","0","No","1","0","5125","2017-10-11 15:50:40","385"
"A144N9R7W4H67O","caus_thomas_fire_v4","3QHK8ZVMIMJLEI199J2P1DE3PD2LBM","0","7","0","No","1","0","6454","2017-10-11 15:50:41","386"
"A3EEMZ0K3T47QZ","caus_thomas_fire_v4","3X31TUMD7XNK1KJH7M90V11U31B1LJ","2","8","0","No","1","0","2793","2017-10-11 15:50:41","387"
"A27ZE20JZ3VDUP","caus_thomas_fire_v4","358UUM7WRZ49F4TW1MN5IN16CF0R7W","5","6","0","Yes","0","0","1258","2017-10-11 15:50:41","388"
"A39C210BKD7YNN","caus_thomas_fire_v4","3NS0A6KXC491AOQO46LCA3GYKZ2ZG0","7","9","0","Yes","1","1","3319","2017-10-11 15:50:41","389"
"A2AGDF3VY0L1QP","caus_thomas_fire_v4","3O6CYIULED2GLBMEDOQMFEN7C5DUW5","6","0","0","No","1","1","3650","2017-10-11 15:50:42","390"
"AI9NJ89EXVDY1","caus_thomas_fire_v4","35BLDD71I6YKSLGJT1KYA4J87EQZVP","2","0","0","No","1","0","5060","2017-10-11 15:50:42","391"
"A35JZAZK1L9D3Z","caus_thomas_fire_v4","3OSWBBLG1EY9T9GI1YWJ7XXQZ7OXDR","9","8","0","Yes","1","1","3363","2017-10-11 15:50:42","392"
"A36CZ0F88ELFWF","caus_thomas_fire_v4","3M23Y66PO282CJF4X1II2J6636ZS6M","7","2","0","Yes","1","1","4350","2017-10-11 15:50:43","393"
"A27ZE20JZ3VDUP","caus_thomas_fire_v4","358UUM7WRZ49F4TW1MN5IN16CF0R7W","6","1","0","No","1","0","1342","2017-10-11 15:50:43","394"
"A1LL9TE7T53Y1P","caus_thomas_fire_v4","373ERPL3YO9WD2Q3EPQ6NJTO1CRRT8","9","7","0","Yes","1","1","3345","2017-10-11 15:50:43","395"
"A2TTRW1EE029C7
A2TTRW1EE029C7","caus_thomas_fire_v4","3AAJC4I4FGTB1QGPCC6F7G8ECRJZJ4","1","4","0",,"0","1","4366","2017-10-11 15:50:43","396"
"A1CUK9RG3RW1DY","caus_thomas_fire_v4","36V4Q8R5ZK1SO6LJSD0UWFORBITMQ1","6","9","0","Yes","1","1","4647","2017-10-11 15:50:44","397"
"APJJ1HHD2GGFS
","caus_thomas_fire_v4","3OLF68YTN92UVGMLHUZVBPPDAZVFAG","6","9","0","Yes","1","1","3828","2017-10-11 15:50:44","398"
"A27ZE20JZ3VDUP","caus_thomas_fire_v4","358UUM7WRZ49F4TW1MN5IN16CF0R7W","7","9","0","No","1","0","793","2017-10-11 15:50:45","399"
"AM4RUMMB8CE8L","caus_thomas_fire_v4","3Z7EFSHGN9FZOHA41218NRF8E7CXCR","5","7","0","Yes","1","1","4397","2017-10-11 15:50:45","400"
"A2AGDF3VY0L1QP","caus_thomas_fire_v4","3O6CYIULED2GLBMEDOQMFEN7C5DUW5","7","2","0","Yes","1","1","2780","2017-10-11 15:50:45","401"
"A39C210BKD7YNN","caus_thomas_fire_v4","3NS0A6KXC491AOQO46LCA3GYKZ2ZG0","8","8","0","Yes","1","1","3924","2017-10-11 15:50:46","402"
"A3EEMZ0K3T47QZ","caus_thomas_fire_v4","3X31TUMD7XNK1KJH7M90V11U31B1LJ","3","6","0","No","1","0","4013","2017-10-11 15:50:46","403"
"A34B40D60FQY9Y","caus_thomas_fire_v4","3NAPMVF0ZWGSBKCBMW84HFTY0NK72X","9","4","0","No","1","0","4694","2017-10-11 15:50:46","404"
"A2PCUGTDC57PJI","caus_thomas_fire_v4","378XPAWRUCEE57OBI25GEM25QRNIAA","0","7","0","Yes","0","0","9522","2017-10-11 15:50:46","405"
"A27ZE20JZ3VDUP","caus_thomas_fire_v4","358UUM7WRZ49F4TW1MN5IN16CF0R7W","8","0","0","Yes","0","0","1260","2017-10-11 15:50:47","406"
"A2TTRW1EE029C7
A2TTRW1EE029C7","caus_thomas_fire_v4","3AAJC4I4FGTB1QGPCC6F7G8ECRJZJ4","2","8","0","Yes","1","1","3614","2017-10-11 15:50:48","407"
"APJJ1HHD2GGFS
","caus_thomas_fire_v4","3OLF68YTN92UVGMLHUZVBPPDAZVFAG","7","6","0","Yes","1","1","3070","2017-10-11 15:50:49","408"
"A36CZ0F88ELFWF","caus_thomas_fire_v4","3M23Y66PO282CJF4X1II2J6636ZS6M","8","0","0","No","1","1","4914","2017-10-11 15:50:49","409"
"AI9NJ89EXVDY1","caus_thomas_fire_v4","35BLDD71I6YKSLGJT1KYA4J87EQZVP","3","9","0","No","1","0","5655","2017-10-11 15:50:49","410"
"A2AGDF3VY0L1QP","caus_thomas_fire_v4","3O6CYIULED2GLBMEDOQMFEN7C5DUW5","8","6","0","No","0","1","2643","2017-10-11 15:50:49","411"
"A3EEMZ0K3T47QZ","caus_thomas_fire_v4","3X31TUMD7XNK1KJH7M90V11U31B1LJ","4","9","0","No","1","0","2397","2017-10-11 15:50:49","412"
"AM4RUMMB8CE8L","caus_thomas_fire_v4","3Z7EFSHGN9FZOHA41218NRF8E7CXCR","6","6","0","Yes","1","1","3009","2017-10-11 15:50:50","413"
"A362C46X7UDVNC","caus_thomas_fire_v4","3IKZ72A5B4H1FZGAQY40XV9D96UFN0","5","2","0","Yes","1","0","8267","2017-10-11 15:50:50","414"
"A144N9R7W4H67O","caus_thomas_fire_v4","3QHK8ZVMIMJLEI199J2P1DE3PD2LBM","1","5","0","No","1","0","8257","2017-10-11 15:50:50","415"
"A1CUK9RG3RW1DY","caus_thomas_fire_v4","36V4Q8R5ZK1SO6LJSD0UWFORBITMQ1","7","1","0","No","1","1","4969","2017-10-11 15:50:50","416"
"A27ZE20JZ3VDUP","caus_thomas_fire_v4","358UUM7WRZ49F4TW1MN5IN16CF0R7W","9","2","0","No","0","0","1679","2017-10-11 15:50:50","417"
"A39C210BKD7YNN","caus_thomas_fire_v4","3NS0A6KXC491AOQO46LCA3GYKZ2ZG0","9","7","0","Yes","1","1","3902","2017-10-11 15:50:51","418"
"AA7IXIG89RV1V","caus_thomas_fire_v4","3LOZAJ85YDEMQZI249C2BE6M2GZX2I","0","0","0","No","1","1","9362","2017-10-11 15:50:51","419"
"A2TTRW1EE029C7
A2TTRW1EE029C7","caus_thomas_fire_v4","3AAJC4I4FGTB1QGPCC6F7G8ECRJZJ4","3","7","0","Yes","1","1","3244","2017-10-11 15:50:52","420"
"A3EEMZ0K3T47QZ","caus_thomas_fire_v4","3X31TUMD7XNK1KJH7M90V11U31B1LJ","5","3","0","No","1","0","2294","2017-10-11 15:50:52","421"
"A3TYWTLNIKKD29","caus_thomas_fire_v4","3UOUJI6MTDFVABR4NTM8HX1EL7JUXY","0","1","0","No","1","0","12441","2017-10-11 15:50:52","422"
"A2AGDF3VY0L1QP","caus_thomas_fire_v4","3O6CYIULED2GLBMEDOQMFEN7C5DUW5","9","7","0","No","0","1","2897","2017-10-11 15:50:53","423"
"APJJ1HHD2GGFS
","caus_thomas_fire_v4","3OLF68YTN92UVGMLHUZVBPPDAZVFAG","8","5","0","Yes","1","1","3912","2017-10-11 15:50:53","424"
"A36CZ0F88ELFWF","caus_thomas_fire_v4","3M23Y66PO282CJF4X1II2J6636ZS6M","9","8","0","Yes","1","1","4093","2017-10-11 15:50:54","425"
"A2PCUGTDC57PJI","caus_thomas_fire_v4","378XPAWRUCEE57OBI25GEM25QRNIAA","1","6","0","Yes","0","0","6823","2017-10-11 15:50:54","426"
"AI9NJ89EXVDY1","caus_thomas_fire_v4","35BLDD71I6YKSLGJT1KYA4J87EQZVP","4","8","0","No","1","0","5147","2017-10-11 15:50:55","427"
"AM4RUMMB8CE8L","caus_thomas_fire_v4","3Z7EFSHGN9FZOHA41218NRF8E7CXCR","7","9","0","Yes","1","1","4671","2017-10-11 15:50:55","428"
"A1CUK9RG3RW1DY","caus_thomas_fire_v4","36V4Q8R5ZK1SO6LJSD0UWFORBITMQ1","8","7","0","Yes","1","1","4614","2017-10-11 15:50:55","429"
"AHTJJ0KDJ6ZIA","caus_thomas_fire_v4","39JEC7537U27KS591N0QZ6INYW4CV3","8","2","0","Yes","1","0","15690","2017-10-11 15:50:56","430"
"A2UNSF09FWX9S8","caus_thomas_fire_v4","358010RM5EUVNQG4SJWDDJ3XZESXVQ","0","0","0","Yes","0","0","5098","2017-10-11 15:50:56","431"
"A2TTRW1EE029C7
A2TTRW1EE029C7","caus_thomas_fire_v4","3AAJC4I4FGTB1QGPCC6F7G8ECRJZJ4","4","5","0","Yes","1","1","2891","2017-10-11 15:50:56","432"
"A3EEMZ0K3T47QZ","caus_thomas_fire_v4","3X31TUMD7XNK1KJH7M90V11U31B1LJ","6","5","0","No","1","0","2814","2017-10-11 15:50:56","433"
"A1UOFT5Y9A87KA","caus_thomas_fire_v4","324G5B4FB39LFA9X794QYR0J3P1077","0","0","0","No","1","0","11052","2017-10-11 15:50:57","434"
"A362C46X7UDVNC","caus_thomas_fire_v4","3IKZ72A5B4H1FZGAQY40XV9D96UFN0","6","6","0","No","1","0","6776","2017-10-11 15:50:58","435"
"AA7IXIG89RV1V","caus_thomas_fire_v4","3LOZAJ85YDEMQZI249C2BE6M2GZX2I","1","8","0","Yes","1","1","6764","2017-10-11 15:50:58","436"
"A2ZX7580NVWA61","caus_thomas_fire_v4","3VSOLARPKBALALWN5TKTELPW1R939H","0","0","0","Yes","0","1","2556","2017-10-11 15:50:59","437"
"A144N9R7W4H67O","caus_thomas_fire_v4","3QHK8ZVMIMJLEI199J2P1DE3PD2LBM","2","6","0","No","1","0","8133","2017-10-11 15:50:59","438"
"AM4RUMMB8CE8L","caus_thomas_fire_v4","3Z7EFSHGN9FZOHA41218NRF8E7CXCR","8","1","0","No","1","1","2971","2017-10-11 15:50:59","439"
"A3SBDWO5M0G2L0","caus_thomas_fire_v4","3YZ8UPK3VTN77DG9WXQL3KG4KPVUCW","1","0","0","No","1","1","47883","2017-10-11 15:50:59","440"
"AI9NJ89EXVDY1","caus_thomas_fire_v4","35BLDD71I6YKSLGJT1KYA4J87EQZVP","5","3","0","No","1","0","3659","2017-10-11 15:51:00","441"
"A3EEMZ0K3T47QZ","caus_thomas_fire_v4","3X31TUMD7XNK1KJH7M90V11U31B1LJ","7","2","0","Yes","1","0","2708","2017-10-11 15:51:00","442"
"APJJ1HHD2GGFS
","caus_thomas_fire_v4","3OLF68YTN92UVGMLHUZVBPPDAZVFAG","9","7","0","Yes","1","1","5660","2017-10-11 15:51:00","443"
"A3HPPDI53JMPW","caus_thomas_fire_v4","3PPTZCWALQLSNDK272QO4HK0QMBZQV","1","2","0","Yes","1","0","27455","2017-10-11 15:51:00","444"
"A2PCUGTDC57PJI","caus_thomas_fire_v4","378XPAWRUCEE57OBI25GEM25QRNIAA","2","0","0","No","1","0","5018","2017-10-11 15:51:00","445"
"A1CUK9RG3RW1DY","caus_thomas_fire_v4","36V4Q8R5ZK1SO6LJSD0UWFORBITMQ1","9","5","0","Yes","1","1","4622","2017-10-11 15:51:01","446"
"A2UNSF09FWX9S8","caus_thomas_fire_v4","358010RM5EUVNQG4SJWDDJ3XZESXVQ","1","3","0","Yes","0","0","4592","2017-10-11 15:51:02","447"
"A1UOFT5Y9A87KA","caus_thomas_fire_v4","324G5B4FB39LFA9X794QYR0J3P1077","1","7","0","No","1","0","4237","2017-10-11 15:51:02","448"
"A3TYWTLNIKKD29","caus_thomas_fire_v4","3UOUJI6MTDFVABR4NTM8HX1EL7JUXY","1","5","0","No","1","0","8948","2017-10-11 15:51:02","449"
"AHTJJ0KDJ6ZIA","caus_thomas_fire_v4","39JEC7537U27KS591N0QZ6INYW4CV3","9","4","0","No","1","0","5894","2017-10-11 15:51:03","450"
"A3EEMZ0K3T47QZ","caus_thomas_fire_v4","3X31TUMD7XNK1KJH7M90V11U31B1LJ","8","1","0","Yes","0","0","1956","2017-10-11 15:51:03","451"
"A3MVQVS782U9SG","caus_thomas_fire_v4","3R2UR8A0IAH0X677R7AZIR9P3LVXOO","0","8","0","Yes","0","0","1815","2017-10-11 15:51:03","452"
"A3CV0AEQ8HOJ0U","caus_thomas_fire_v4","39U1BHVTDLS4U0513ZPA5LQ8VYBT36","0","3","0","Yes","1","1","4731","2017-10-11 15:51:03","453"
"A23TGEQ4CG90PA","caus_thomas_fire_v4","3QAVNHZ3EM5GV8WH352T62UX7VHLAR","0","6","0","Yes","1","1","4449","2017-10-11 15:51:04","454"
"AI9NJ89EXVDY1","caus_thomas_fire_v4","35BLDD71I6YKSLGJT1KYA4J87EQZVP","6","4","0","No","1","0","4052","2017-10-11 15:51:05","455"
"A3HPPDI53JMPW","caus_thomas_fire_v4","3PPTZCWALQLSNDK272QO4HK0QMBZQV","2","6","0","No","1","0","6912","2017-10-11 15:51:05","456"
"A2ZX7580NVWA61","caus_thomas_fire_v4","3VSOLARPKBALALWN5TKTELPW1R939H","1","1","0","Yes","0","1","4982","2017-10-11 15:51:05","457"
"A3MVQVS782U9SG","caus_thomas_fire_v4","3R2UR8A0IAH0X677R7AZIR9P3LVXOO","1","5","0","Yes","0","0","1324","2017-10-11 15:51:05","458"
"A362C46X7UDVNC","caus_thomas_fire_v4","3IKZ72A5B4H1FZGAQY40XV9D96UFN0","7","9","0","No","1","0","6569","2017-10-11 15:51:05","459"
"AM4RUMMB8CE8L","caus_thomas_fire_v4","3Z7EFSHGN9FZOHA41218NRF8E7CXCR","9","8","0","Yes","1","1","5179","2017-10-11 15:51:05","460"
"AA7IXIG89RV1V","caus_thomas_fire_v4","3LOZAJ85YDEMQZI249C2BE6M2GZX2I","2","1","0","No","1","1","5896","2017-10-11 15:51:05","461"
"A144N9R7W4H67O","caus_thomas_fire_v4","3QHK8ZVMIMJLEI199J2P1DE3PD2LBM","3","2","0","Yes","1","0","5616","2017-10-11 15:51:06","462"
"A3EEMZ0K3T47QZ","caus_thomas_fire_v4","3X31TUMD7XNK1KJH7M90V11U31B1LJ","9","0","0","Yes","0","0","1949","2017-10-11 15:51:06","463"
"A2UNSF09FWX9S8","caus_thomas_fire_v4","358010RM5EUVNQG4SJWDDJ3XZESXVQ","2","9","0","Yes","0","0","3735","2017-10-11 15:51:06","464"
"A36LW3J7QKZ5CT","caus_thomas_fire_v4","3SPJ0334214BW06KGQ4WT9ZC6XFJYX","0","6","0","Yes","1","1","4911","2017-10-11 15:51:07","465"
"A3CV0AEQ8HOJ0U","caus_thomas_fire_v4","39U1BHVTDLS4U0513ZPA5LQ8VYBT36","1","0","0","Yes","0","1","3098","2017-10-11 15:51:07","466"
"A3MVQVS782U9SG","caus_thomas_fire_v4","3R2UR8A0IAH0X677R7AZIR9P3LVXOO","2","1","0","Yes","0","0","1588","2017-10-11 15:51:08","467"
"A1UOFT5Y9A87KA","caus_thomas_fire_v4","324G5B4FB39LFA9X794QYR0J3P1077","2","8","0","No","1","0","5807","2017-10-11 15:51:09","468"
"A3SBDWO5M0G2L0","caus_thomas_fire_v4","3YZ8UPK3VTN77DG9WXQL3KG4KPVUCW","2","9","0","Yes","1","1","8422","2017-10-11 15:51:09","469"
"A23TGEQ4CG90PA","caus_thomas_fire_v4","3QAVNHZ3EM5GV8WH352T62UX7VHLAR","1","4","0","Yes","1","1","4421","2017-10-11 15:51:10","470"
"A2ZX7580NVWA61","caus_thomas_fire_v4","3VSOLARPKBALALWN5TKTELPW1R939H","2","8","0","Yes","1","1","4173","2017-10-11 15:51:10","471"
"A36LW3J7QKZ5CT","caus_thomas_fire_v4","3SPJ0334214BW06KGQ4WT9ZC6XFJYX","1","5","0","Yes","1","1","2412","2017-10-11 15:51:10","472"
"A3TYWTLNIKKD29","caus_thomas_fire_v4","3UOUJI6MTDFVABR4NTM8HX1EL7JUXY","2","4","0","No","1","0","6953","2017-10-11 15:51:10","473"
"AI9NJ89EXVDY1","caus_thomas_fire_v4","35BLDD71I6YKSLGJT1KYA4J87EQZVP","7","6","0","No","1","0","4934","2017-10-11 15:51:11","474"
"A3CV0AEQ8HOJ0U","caus_thomas_fire_v4","39U1BHVTDLS4U0513ZPA5LQ8VYBT36","2","1","0","Yes","0","1","2357","2017-10-11 15:51:11","475"
"A3MVQVS782U9SG","caus_thomas_fire_v4","3R2UR8A0IAH0X677R7AZIR9P3LVXOO","3","6","0","No","1","0","2108","2017-10-11 15:51:11","476"
"A2UNSF09FWX9S8","caus_thomas_fire_v4","358010RM5EUVNQG4SJWDDJ3XZESXVQ","3","7","0","Yes","0","0","3639","2017-10-11 15:51:11","477"
"A2PCUGTDC57PJI","caus_thomas_fire_v4","378XPAWRUCEE57OBI25GEM25QRNIAA","3","9","0","Yes","0","0","9978","2017-10-11 15:51:11","478"
"A144N9R7W4H67O","caus_thomas_fire_v4","3QHK8ZVMIMJLEI199J2P1DE3PD2LBM","4","0","0","No","1","0","5497","2017-10-11 15:51:12","479"
"AA7IXIG89RV1V","caus_thomas_fire_v4","3LOZAJ85YDEMQZI249C2BE6M2GZX2I","3","5","0","Yes","1","1","6286","2017-10-11 15:51:13","480"
"A23TGEQ4CG90PA","caus_thomas_fire_v4","3QAVNHZ3EM5GV8WH352T62UX7VHLAR","2","1","0","No","1","1","2530","2017-10-11 15:51:13","481"
"A36LW3J7QKZ5CT","caus_thomas_fire_v4","3SPJ0334214BW06KGQ4WT9ZC6XFJYX","2","7","0","Yes","1","1","2887","2017-10-11 15:51:14","482"
"A3MVQVS782U9SG","caus_thomas_fire_v4","3R2UR8A0IAH0X677R7AZIR9P3LVXOO","4","2","0","Yes","1","0","2158","2017-10-11 15:51:14","483"
"A3CV0AEQ8HOJ0U","caus_thomas_fire_v4","39U1BHVTDLS4U0513ZPA5LQ8VYBT36","3","8","0","Yes","1","1","2860","2017-10-11 15:51:15","484"
"A3HPPDI53JMPW","caus_thomas_fire_v4","3PPTZCWALQLSNDK272QO4HK0QMBZQV","3","5","0","No","1","0","8747","2017-10-11 15:51:15","485"
"A362C46X7UDVNC","caus_thomas_fire_v4","3IKZ72A5B4H1FZGAQY40XV9D96UFN0","8","4","0","No","1","0","8682","2017-10-11 15:51:15","486"
"A1E94U14N16SYJ","caus_thomas_fire_v4","3LKC68YZ3A4L862HH2EDG8VIUJPWOU","8","7","0","Yes","0","0","40616","2017-10-11 15:51:15","487"
" A3NLJS5TGM8ZST","caus_thomas_fire_v4","3DZQRBDBSLG3F0SMEZKKVGUMTFXS3G","0","7","0","No","1","0","8059","2017-10-11 15:51:16","488"
"AI9NJ89EXVDY1","caus_thomas_fire_v4","35BLDD71I6YKSLGJT1KYA4J87EQZVP","8","7","0","No","1","0","3990","2017-10-11 15:51:16","489"
"A3TYWTLNIKKD29","caus_thomas_fire_v4","3UOUJI6MTDFVABR4NTM8HX1EL7JUXY","3","2","0","Yes","1","0","4309","2017-10-11 15:51:16","490"
"A2UNSF09FWX9S8","caus_thomas_fire_v4","358010RM5EUVNQG4SJWDDJ3XZESXVQ","4","6","0","Yes","0","0","3679","2017-10-11 15:51:16","491"
"A1UOFT5Y9A87KA","caus_thomas_fire_v4","324G5B4FB39LFA9X794QYR0J3P1077","3","3","0","No","1","0","6389","2017-10-11 15:51:16","492"
"A3MVQVS782U9SG","caus_thomas_fire_v4","3R2UR8A0IAH0X677R7AZIR9P3LVXOO","5","9","0","Yes","0","0","2262","2017-10-11 15:51:17","493"
"A2PCUGTDC57PJI","caus_thomas_fire_v4","378XPAWRUCEE57OBI25GEM25QRNIAA","4","8","0","Yes","0","0","5443","2017-10-11 15:51:18","494"
"A3CV0AEQ8HOJ0U","caus_thomas_fire_v4","39U1BHVTDLS4U0513ZPA5LQ8VYBT36","4","5","0","Yes","1","1","2116","2017-10-11 15:51:18","495"
"A36LW3J7QKZ5CT","caus_thomas_fire_v4","3SPJ0334214BW06KGQ4WT9ZC6XFJYX","3","9","0","Yes","1","1","3021","2017-10-11 15:51:18","496"
"A23TGEQ4CG90PA","caus_thomas_fire_v4","3QAVNHZ3EM5GV8WH352T62UX7VHLAR","3","8","0","Yes","1","1","4140","2017-10-11 15:51:18","497"
"A3SBDWO5M0G2L0","caus_thomas_fire_v4","3YZ8UPK3VTN77DG9WXQL3KG4KPVUCW","3","5","0","Yes","1","1","8792","2017-10-11 15:51:19","498"
" A2DJQD3KQYBUMB
 A2DJQD3KQYBUMB
","caus_thomas_fire_v4","3FE7TXL1LIO2H2HQIVHAH6AT5DD2QR","0","1","0","No","1","0","12013","2017-10-11 15:51:19","499"
"A144N9R7W4H67O","caus_thomas_fire_v4","3QHK8ZVMIMJLEI199J2P1DE3PD2LBM","5","8","0","No","1","0","5729","2017-10-11 15:51:19","500"
"AA7IXIG89RV1V","caus_thomas_fire_v4","3LOZAJ85YDEMQZI249C2BE6M2GZX2I","4","3","0","Yes","1","1","5546","2017-10-11 15:51:19","501"
"A3MVQVS782U9SG","caus_thomas_fire_v4","3R2UR8A0IAH0X677R7AZIR9P3LVXOO","6","3","0","No","1","0","1444","2017-10-11 15:51:20","502"
"A2UNSF09FWX9S8","caus_thomas_fire_v4","358010RM5EUVNQG4SJWDDJ3XZESXVQ","5","8","0","Yes","0","0","3295","2017-10-11 15:51:20","503"
"A3CV0AEQ8HOJ0U","caus_thomas_fire_v4","39U1BHVTDLS4U0513ZPA5LQ8VYBT36","5","7","0","Yes","1","1","1932","2017-10-11 15:51:21","504"
"AI9NJ89EXVDY1","caus_thomas_fire_v4","35BLDD71I6YKSLGJT1KYA4J87EQZVP","9","1","0","No","1","0","4316","2017-10-11 15:51:21","505"
"A36LW3J7QKZ5CT","caus_thomas_fire_v4","3SPJ0334214BW06KGQ4WT9ZC6XFJYX","4","1","0","No","1","1","2054","2017-10-11 15:51:21","506"
"A3MVQVS782U9SG","caus_thomas_fire_v4","3R2UR8A0IAH0X677R7AZIR9P3LVXOO","7","0","0","No","1","0","1157","2017-10-11 15:51:22","507"
"A1E94U14N16SYJ","caus_thomas_fire_v4","3LKC68YZ3A4L862HH2EDG8VIUJPWOU","9","6","0","Yes","0","0","6377","2017-10-11 15:51:22","508"
" A3NLJS5TGM8ZST","caus_thomas_fire_v4","3DZQRBDBSLG3F0SMEZKKVGUMTFXS3G","1","8","0","No","1","0","6234","2017-10-11 15:51:23","509"
"A23TGEQ4CG90PA","caus_thomas_fire_v4","3QAVNHZ3EM5GV8WH352T62UX7VHLAR","4","9","0","Yes","1","1","3833","2017-10-11 15:51:23","510"
"A2PCUGTDC57PJI","caus_thomas_fire_v4","378XPAWRUCEE57OBI25GEM25QRNIAA","5","3","0","Yes","0","0","4318","2017-10-11 15:51:23","511"
"A1UOFT5Y9A87KA","caus_thomas_fire_v4","324G5B4FB39LFA9X794QYR0J3P1077","4","6","0","No","1","0","5931","2017-10-11 15:51:23","512"
"A34F2ESTZYTWRM","caus_thomas_fire_v4","336KAV9KYQTBQ48C95Y4USDV4MTY2P","0","2","0","Yes","1","0","3776","2017-10-11 15:51:23","513"
"A17V85U8PXS4LJ","caus_thomas_fire_v4","3EQHHY4HQST33A6ZXIEWLZ93J0V5G0","0","8","0","Yes","1","1","5798","2017-10-11 15:51:23","514"
"A1PZ1YZAQEXRSQ","caus_thomas_fire_v4","33LKR6A5KEL8KXRMGVBRHSBBXEXT1E","0","7","0","Yes","1","1","6661","2017-10-11 15:51:24","515"
"A36XEP5H6KBQIB","caus_thomas_fire_v4","3A0EX8ZRN8P5EH88SYRFVLGZYS6YBR","0","4","0","No","1","0","4206","2017-10-11 15:51:24","516"
"A2UNSF09FWX9S8","caus_thomas_fire_v4","358010RM5EUVNQG4SJWDDJ3XZESXVQ","6","5","0","Yes","0","0","2849","2017-10-11 15:51:24","517"
"A3CV0AEQ8HOJ0U","caus_thomas_fire_v4","39U1BHVTDLS4U0513ZPA5LQ8VYBT36","6","6","0","No","0","1","2203","2017-10-11 15:51:24","518"
"A3MVQVS782U9SG","caus_thomas_fire_v4","3R2UR8A0IAH0X677R7AZIR9P3LVXOO","8","4","0","Yes","0","0","1085","2017-10-11 15:51:24","519"
"A3HPPDI53JMPW","caus_thomas_fire_v4","3PPTZCWALQLSNDK272QO4HK0QMBZQV","4","1","0","No","1","0","8604","2017-10-11 15:51:24","520"
"A362C46X7UDVNC","caus_thomas_fire_v4","3IKZ72A5B4H1FZGAQY40XV9D96UFN0","9","8","0","No","1","0","8498","2017-10-11 15:51:24","521"
"A144N9R7W4H67O","caus_thomas_fire_v4","3QHK8ZVMIMJLEI199J2P1DE3PD2LBM","6","1","0","No","1","0","4845","2017-10-11 15:51:25","522"
"A36LW3J7QKZ5CT","caus_thomas_fire_v4","3SPJ0334214BW06KGQ4WT9ZC6XFJYX","5","3","0","Yes","1","1","2413","2017-10-11 15:51:25","523"
"AA7IXIG89RV1V","caus_thomas_fire_v4","3LOZAJ85YDEMQZI249C2BE6M2GZX2I","5","7","0","Yes","1","1","4746","2017-10-11 15:51:25","524"
" A2DJQD3KQYBUMB
 A2DJQD3KQYBUMB
","caus_thomas_fire_v4","3FE7TXL1LIO2H2HQIVHAH6AT5DD2QR","1","8","0","No","1","0","5266","2017-10-11 15:51:25","525"
"A3SBDWO5M0G2L0","caus_thomas_fire_v4","3YZ8UPK3VTN77DG9WXQL3KG4KPVUCW","4","2","0","Yes","1","1","5975","2017-10-11 15:51:26","526"
"A1K8E6PV2GPJ3Q","caus_thomas_fire_v4","3I3WADAZ9Q5RVNNXL1R4Q8I5AMM5ON","0","7","0","Yes","1","1","4653","2017-10-11 15:51:26","527"
"A23TGEQ4CG90PA","caus_thomas_fire_v4","3QAVNHZ3EM5GV8WH352T62UX7VHLAR","5","3","0","Yes","1","1","3239","2017-10-11 15:51:27","528"
"A3CV0AEQ8HOJ0U","caus_thomas_fire_v4","39U1BHVTDLS4U0513ZPA5LQ8VYBT36","7","4","0","Yes","1","1","2573","2017-10-11 15:51:27","529"
"A17V85U8PXS4LJ","caus_thomas_fire_v4","3EQHHY4HQST33A6ZXIEWLZ93J0V5G0","1","0","0","No","1","1","3111","2017-10-11 15:51:28","530"
"A36LW3J7QKZ5CT","caus_thomas_fire_v4","3SPJ0334214BW06KGQ4WT9ZC6XFJYX","6","4","0","Yes","1","1","2574","2017-10-11 15:51:28","531"
"A2UNSF09FWX9S8","caus_thomas_fire_v4","358010RM5EUVNQG4SJWDDJ3XZESXVQ","7","2","0","Yes","1","0","3454","2017-10-11 15:51:28","532"
"A3MVQVS782U9SG","caus_thomas_fire_v4","3R2UR8A0IAH0X677R7AZIR9P3LVXOO","9","7","0","Yes","0","0","3749","2017-10-11 15:51:29","533"
"A1PZ1YZAQEXRSQ","caus_thomas_fire_v4","33LKR6A5KEL8KXRMGVBRHSBBXEXT1E","1","5","0","Yes","1","1","4278","2017-10-11 15:51:29","534"
" A3NLJS5TGM8ZST","caus_thomas_fire_v4","3DZQRBDBSLG3F0SMEZKKVGUMTFXS3G","2","3","0","No","1","0","5313","2017-10-11 15:51:29","535"
"A36XEP5H6KBQIB","caus_thomas_fire_v4","3A0EX8ZRN8P5EH88SYRFVLGZYS6YBR","1","9","0","Yes","0","0","4821","2017-10-11 15:51:30","536"
"A144N9R7W4H67O","caus_thomas_fire_v4","3QHK8ZVMIMJLEI199J2P1DE3PD2LBM","7","4","0","No","1","0","4575","2017-10-11 15:51:30","537"
"A3CV0AEQ8HOJ0U","caus_thomas_fire_v4","39U1BHVTDLS4U0513ZPA5LQ8VYBT36","8","9","0","Yes","1","1","1799","2017-10-11 15:51:30","538"
"A1UOFT5Y9A87KA","caus_thomas_fire_v4","324G5B4FB39LFA9X794QYR0J3P1077","5","9","0","No","1","0","6557","2017-10-11 15:51:31","539"
"A1K8E6PV2GPJ3Q","caus_thomas_fire_v4","3I3WADAZ9Q5RVNNXL1R4Q8I5AMM5ON","1","0","0","No","1","1","4103","2017-10-11 15:51:31","540"
"A23TGEQ4CG90PA","caus_thomas_fire_v4","3QAVNHZ3EM5GV8WH352T62UX7VHLAR","6","2","0","Yes","1","1","3048","2017-10-11 15:51:31","541"
"A3HPPDI53JMPW","caus_thomas_fire_v4","3PPTZCWALQLSNDK272QO4HK0QMBZQV","5","0","0","No","1","0","6102","2017-10-11 15:51:31","542"
"A3SBDWO5M0G2L0","caus_thomas_fire_v4","3YZ8UPK3VTN77DG9WXQL3KG4KPVUCW","5","1","0","No","1","1","4979","2017-10-11 15:51:32","543"
"A34F2ESTZYTWRM","caus_thomas_fire_v4","336KAV9KYQTBQ48C95Y4USDV4MTY2P","1","0","0","No","1","0","7605","2017-10-11 15:51:32","544"
"AA7IXIG89RV1V","caus_thomas_fire_v4","3LOZAJ85YDEMQZI249C2BE6M2GZX2I","6","9","0","Yes","1","1","6097","2017-10-11 15:51:32","545"
"A36LW3J7QKZ5CT","caus_thomas_fire_v4","3SPJ0334214BW06KGQ4WT9ZC6XFJYX","7","0","0","No","1","1","3005","2017-10-11 15:51:32","546"
"A2UNSF09FWX9S8","caus_thomas_fire_v4","358010RM5EUVNQG4SJWDDJ3XZESXVQ","8","4","0","Yes","0","0","3032","2017-10-11 15:51:32","547"
"A17V85U8PXS4LJ","caus_thomas_fire_v4","3EQHHY4HQST33A6ZXIEWLZ93J0V5G0","2","2","0","Yes","1","1","4127","2017-10-11 15:51:33","548"
" A2DJQD3KQYBUMB
 A2DJQD3KQYBUMB
","caus_thomas_fire_v4","3FE7TXL1LIO2H2HQIVHAH6AT5DD2QR","2","3","0","No","1","0","6636","2017-10-11 15:51:33","549"
"A3CV0AEQ8HOJ0U","caus_thomas_fire_v4","39U1BHVTDLS4U0513ZPA5LQ8VYBT36","9","2","0","Yes","1","1","2408","2017-10-11 15:51:34","550"
"A2PCUGTDC57PJI","caus_thomas_fire_v4","378XPAWRUCEE57OBI25GEM25QRNIAA","6","2","0","Yes","1","0","9770","2017-10-11 15:51:34","551"
"A36XEP5H6KBQIB","caus_thomas_fire_v4","3A0EX8ZRN8P5EH88SYRFVLGZYS6YBR","2","1","0","Yes","0","0","3218","2017-10-11 15:51:34","552"
"A23TGEQ4CG90PA","caus_thomas_fire_v4","3QAVNHZ3EM5GV8WH352T62UX7VHLAR","7","0","0","No","1","1","2879","2017-10-11 15:51:35","553"
"A2T5CROJ0FWIJY","caus_thomas_fire_v4","3G0WWMR1UVLY6O6J4EFU9UDRG83NQ2","0","5","0","Yes","1","1","4058","2017-10-11 15:51:35","554"
"A2TTRW1EE029C7
A2TTRW1EE029C7","caus_thomas_fire_v4","3AAJC4I4FGTB1QGPCC6F7G8ECRJZJ4","5","0","0","No","1","1","38364","2017-10-11 15:51:36","555"
"A144N9R7W4H67O","caus_thomas_fire_v4","3QHK8ZVMIMJLEI199J2P1DE3PD2LBM","8","9","0","No","1","0","4516","2017-10-11 15:51:36","556"
"A1UOFT5Y9A87KA","caus_thomas_fire_v4","324G5B4FB39LFA9X794QYR0J3P1077","6","2","0","Yes","1","0","4046","2017-10-11 15:51:36","557"
" A3NLJS5TGM8ZST","caus_thomas_fire_v4","3DZQRBDBSLG3F0SMEZKKVGUMTFXS3G","3","5","0","No","1","0","5809","2017-10-11 15:51:36","558"
"A36LW3J7QKZ5CT","caus_thomas_fire_v4","3SPJ0334214BW06KGQ4WT9ZC6XFJYX","8","2","0","Yes","1","1","3268","2017-10-11 15:51:36","559"
"A34F2ESTZYTWRM","caus_thomas_fire_v4","336KAV9KYQTBQ48C95Y4USDV4MTY2P","2","6","0","No","1","0","3639","2017-10-11 15:51:37","560"
"A17V85U8PXS4LJ","caus_thomas_fire_v4","3EQHHY4HQST33A6ZXIEWLZ93J0V5G0","3","4","0","Yes","1","1","3630","2017-10-11 15:51:37","561"
"AWE9A4ZOP9LNU
","caus_thomas_fire_v4","3U5JL4WY5KAWTDXP8NVQ4T3KMUW4XM","0","4","0","Yes","1","1","4664","2017-10-11 15:51:38","562"
"A1PZ1YZAQEXRSQ","caus_thomas_fire_v4","33LKR6A5KEL8KXRMGVBRHSBBXEXT1E","2","3","0","Yes","1","1","7792","2017-10-11 15:51:38","563"
" A2DJQD3KQYBUMB
 A2DJQD3KQYBUMB
","caus_thomas_fire_v4","3FE7TXL1LIO2H2HQIVHAH6AT5DD2QR","3","5","0","No","1","0","4206","2017-10-11 15:51:38","564"
"A2UNSF09FWX9S8","caus_thomas_fire_v4","358010RM5EUVNQG4SJWDDJ3XZESXVQ","9","1","0","Yes","0","0","4687","2017-10-11 15:51:38","565"
"A3SBDWO5M0G2L0","caus_thomas_fire_v4","3YZ8UPK3VTN77DG9WXQL3KG4KPVUCW","6","4","0","Yes","1","1","5897","2017-10-11 15:51:39","566"
"A23TGEQ4CG90PA","caus_thomas_fire_v4","3QAVNHZ3EM5GV8WH352T62UX7VHLAR","8","5","0",,"0","1","3503","2017-10-11 15:51:40","567"
"A1K8E6PV2GPJ3Q","caus_thomas_fire_v4","3I3WADAZ9Q5RVNNXL1R4Q8I5AMM5ON","2","1","0","No","1","1","7656","2017-10-11 15:51:40","568"
"AA7IXIG89RV1V","caus_thomas_fire_v4","3LOZAJ85YDEMQZI249C2BE6M2GZX2I","7","2","0","Yes","1","1","7117","2017-10-11 15:51:40","569"
"A2T5CROJ0FWIJY","caus_thomas_fire_v4","3G0WWMR1UVLY6O6J4EFU9UDRG83NQ2","1","9","0","Yes","1","1","4110","2017-10-11 15:51:41","570"
"A3HPPDI53JMPW","caus_thomas_fire_v4","3PPTZCWALQLSNDK272QO4HK0QMBZQV","6","4","0","No","1","0","8038","2017-10-11 15:51:41","571"
"A2TTRW1EE029C7
A2TTRW1EE029C7","caus_thomas_fire_v4","3AAJC4I4FGTB1QGPCC6F7G8ECRJZJ4","6","1","0","No","1","1","3976","2017-10-11 15:51:41","572"
"A1UOFT5Y9A87KA","caus_thomas_fire_v4","324G5B4FB39LFA9X794QYR0J3P1077","7","4","0","No","1","0","3835","2017-10-11 15:51:41","573"
"A36LW3J7QKZ5CT","caus_thomas_fire_v4","3SPJ0334214BW06KGQ4WT9ZC6XFJYX","9","8","0","Yes","1","1","3215","2017-10-11 15:51:41","574"
"A144N9R7W4H67O","caus_thomas_fire_v4","3QHK8ZVMIMJLEI199J2P1DE3PD2LBM","9","3","0","No","1","0","4459","2017-10-11 15:51:41","575"
"A36XEP5H6KBQIB","caus_thomas_fire_v4","3A0EX8ZRN8P5EH88SYRFVLGZYS6YBR","3","3","0","Yes","0","0","6385","2017-10-11 15:51:41","576"
"A17V85U8PXS4LJ","caus_thomas_fire_v4","3EQHHY4HQST33A6ZXIEWLZ93J0V5G0","4","5","0","Yes","1","1","3818","2017-10-11 15:51:42","577"
" A3NLJS5TGM8ZST","caus_thomas_fire_v4","3DZQRBDBSLG3F0SMEZKKVGUMTFXS3G","4","4","0","No","1","0","5247","2017-10-11 15:51:42","578"
"A2PCUGTDC57PJI","caus_thomas_fire_v4","378XPAWRUCEE57OBI25GEM25QRNIAA","7","5","0","Yes","0","0","7388","2017-10-11 15:51:42","579"
"A1PZ1YZAQEXRSQ","caus_thomas_fire_v4","33LKR6A5KEL8KXRMGVBRHSBBXEXT1E","3","0","0","No","1","1","3780","2017-10-11 15:51:43","580"
" A2DJQD3KQYBUMB
 A2DJQD3KQYBUMB
","caus_thomas_fire_v4","3FE7TXL1LIO2H2HQIVHAH6AT5DD2QR","4","4","0","No","1","0","4648","2017-10-11 15:51:44","581"
"A3FA8CP9DMTB1P","caus_thomas_fire_v4","3IKZ72A5B4H1FZGAQY40XV9D96UNF8","0","7","0","Yes","1","1","3965","2017-10-11 15:51:44","582"
"A34F2ESTZYTWRM","caus_thomas_fire_v4","336KAV9KYQTBQ48C95Y4USDV4MTY2P","3","9","0","No","1","0","6143","2017-10-11 15:51:44","583"
"AWE9A4ZOP9LNU
","caus_thomas_fire_v4","3U5JL4WY5KAWTDXP8NVQ4T3KMUW4XM","1","9","0","Yes","1","1","5370","2017-10-11 15:51:44","584"
"ALM8YFO0272UR","caus_thomas_fire_v4","3I02618YA07Q12PD12CRNKFBJ8APU5","0","8","0","No","1","0","4896","2017-10-11 15:51:44","585"
"A3SBDWO5M0G2L0","caus_thomas_fire_v4","3YZ8UPK3VTN77DG9WXQL3KG4KPVUCW","7","3","0","Yes","1","1","4755","2017-10-11 15:51:44","586"
"A2TTRW1EE029C7
A2TTRW1EE029C7","caus_thomas_fire_v4","3AAJC4I4FGTB1QGPCC6F7G8ECRJZJ4","7","2","0","Yes","1","1","2909","2017-10-11 15:51:45","587"
"A36XEP5H6KBQIB","caus_thomas_fire_v4","3A0EX8ZRN8P5EH88SYRFVLGZYS6YBR","4","7","0","Yes","0","0","2426","2017-10-11 15:51:45","588"
"A1MVPAAPFIWETH","caus_thomas_fire_v4","3KJYX6QCM9CUS6BFBFHCMAVIOGDVJ0","0","2","0","Yes","1","1","5652","2017-10-11 15:51:45","589"
"A2T5CROJ0FWIJY","caus_thomas_fire_v4","3G0WWMR1UVLY6O6J4EFU9UDRG83NQ2","2","8","0","Yes","1","1","3969","2017-10-11 15:51:45","590"
"AKSQ73RWZ9428","caus_thomas_fire_v4","3570Y55XZPK15YGJ8KJTWW7WE5YYG8","0","7","0","Yes","1","1","5410","2017-10-11 15:51:46","591"
"A1UOFT5Y9A87KA","caus_thomas_fire_v4","324G5B4FB39LFA9X794QYR0J3P1077","8","5","0","No","1","0","4088","2017-10-11 15:51:46","592"
"AA7IXIG89RV1V","caus_thomas_fire_v4","3LOZAJ85YDEMQZI249C2BE6M2GZX2I","8","4","0","Yes","1","1","4666","2017-10-11 15:51:46","593"
"A23TGEQ4CG90PA","caus_thomas_fire_v4","3QAVNHZ3EM5GV8WH352T62UX7VHLAR","9","7","0","Yes","1","1","6067","2017-10-11 15:51:47","594"
"A2PLPSH6IW00IA","caus_thomas_fire_v4","3X31TUMD7XNK1KJH7M90V11U31BL13","0","3","0","Yes","1","1","7605","2017-10-11 15:51:47","595"
"A1PZ1YZAQEXRSQ","caus_thomas_fire_v4","33LKR6A5KEL8KXRMGVBRHSBBXEXT1E","4","6","0","Yes","1","1","3729","2017-10-11 15:51:47","596"
"A17V85U8PXS4LJ","caus_thomas_fire_v4","3EQHHY4HQST33A6ZXIEWLZ93J0V5G0","5","3","0",,"0","1","4238","2017-10-11 15:51:47","597"
"A36XEP5H6KBQIB","caus_thomas_fire_v4","3A0EX8ZRN8P5EH88SYRFVLGZYS6YBR","5","5","0","Yes","0","0","2081","2017-10-11 15:51:48","598"
"A3HPPDI53JMPW","caus_thomas_fire_v4","3PPTZCWALQLSNDK272QO4HK0QMBZQV","7","9","0","No","1","0","6202","2017-10-11 15:51:48","599"
"A1R0689JPSQ3OF","caus_thomas_fire_v4","3LQ8PUHQFLTTFUWPO8F8V8P93MDIHL","0","0","0","No","1","0","3941","2017-10-11 15:51:48","600"
"A1K8E6PV2GPJ3Q","caus_thomas_fire_v4","3I3WADAZ9Q5RVNNXL1R4Q8I5AMM5ON","3","2","0","Yes","1","1","7534","2017-10-11 15:51:48","601"
" A3NLJS5TGM8ZST","caus_thomas_fire_v4","3DZQRBDBSLG3F0SMEZKKVGUMTFXS3G","5","9","0","No","1","0","5282","2017-10-11 15:51:48","602"
"A34F2ESTZYTWRM","caus_thomas_fire_v4","336KAV9KYQTBQ48C95Y4USDV4MTY2P","4","1","0","No","1","0","3825","2017-10-11 15:51:49","603"
"A2TTRW1EE029C7
A2TTRW1EE029C7","caus_thomas_fire_v4","3AAJC4I4FGTB1QGPCC6F7G8ECRJZJ4","8","3","0","Yes","1","1","3092","2017-10-11 15:51:49","604"
" A2DJQD3KQYBUMB
 A2DJQD3KQYBUMB
","caus_thomas_fire_v4","3FE7TXL1LIO2H2HQIVHAH6AT5DD2QR","5","7","0","No","1","0","4215","2017-10-11 15:51:49","605"
"AWE9A4ZOP9LNU
","caus_thomas_fire_v4","3U5JL4WY5KAWTDXP8NVQ4T3KMUW4XM","2","7","0","Yes","1","1","4084","2017-10-11 15:51:49","606"
"A3FA8CP9DMTB1P","caus_thomas_fire_v4","3IKZ72A5B4H1FZGAQY40XV9D96UNF8","1","2","0","Yes","1","1","4846","2017-10-11 15:51:50","607"
"ALM8YFO0272UR","caus_thomas_fire_v4","3I02618YA07Q12PD12CRNKFBJ8APU5","1","3","0","No","1","0","4984","2017-10-11 15:51:50","608"
"A36XEP5H6KBQIB","caus_thomas_fire_v4","3A0EX8ZRN8P5EH88SYRFVLGZYS6YBR","6","8","0","Yes","0","0","1610","2017-10-11 15:51:50","609"
"a1wmojnu4ffqy8","caus_thomas_fire_v4","3QXNC7EIPIWPTTXQM62ACNRPYFP09J","0","7","0","Yes","1","1","9808","2017-10-11 15:51:50","610"
"A2T5CROJ0FWIJY","caus_thomas_fire_v4","3G0WWMR1UVLY6O6J4EFU9UDRG83NQ2","3","0","0","No","1","1","4000","2017-10-11 15:51:50","611"
"A1MVPAAPFIWETH","caus_thomas_fire_v4","3KJYX6QCM9CUS6BFBFHCMAVIOGDVJ0","1","1","0","No","1","1","4851","2017-10-11 15:51:51","612"
"A2PCUGTDC57PJI","caus_thomas_fire_v4","378XPAWRUCEE57OBI25GEM25QRNIAA","8","1","0","Yes","0","0","6804","2017-10-11 15:51:51","613"
"A1UOFT5Y9A87KA","caus_thomas_fire_v4","324G5B4FB39LFA9X794QYR0J3P1077","9","1","0","No","1","0","4332","2017-10-11 15:51:51","614"
"A3SBDWO5M0G2L0","caus_thomas_fire_v4","3YZ8UPK3VTN77DG9WXQL3KG4KPVUCW","8","8","0","Yes","1","1","5985","2017-10-11 15:51:51","615"
"AA7IXIG89RV1V","caus_thomas_fire_v4","3LOZAJ85YDEMQZI249C2BE6M2GZX2I","9","6","0","Yes","1","1","4750","2017-10-11 15:51:52","616"
"A1PZ1YZAQEXRSQ","caus_thomas_fire_v4","33LKR6A5KEL8KXRMGVBRHSBBXEXT1E","5","8","0","Yes","1","1","3521","2017-10-11 15:51:52","617"
"A2TTRW1EE029C7
A2TTRW1EE029C7","caus_thomas_fire_v4","3AAJC4I4FGTB1QGPCC6F7G8ECRJZJ4","9","6","0","Yes","1","1","2274","2017-10-11 15:51:52","618"
"A2C6KUVF0FAIY8","caus_thomas_fire_v4","30BUDKLTXDW5JWA8RNO8LWOR6KG5EJ","0","4","0","Yes","1","1","6948","2017-10-11 15:51:52","619"
"AKSQ73RWZ9428","caus_thomas_fire_v4","3570Y55XZPK15YGJ8KJTWW7WE5YYG8","1","1","0","No","1","1","5724","2017-10-11 15:51:52","620"
"A2ZX7580NVWA61","caus_thomas_fire_v4","3VSOLARPKBALALWN5TKTELPW1R939H","3","3","0","Yes","1","1","41333","2017-10-11 15:51:53","621"
"A17V85U8PXS4LJ","caus_thomas_fire_v4","3EQHHY4HQST33A6ZXIEWLZ93J0V5G0","6","9","0","Yes","1","1","4105","2017-10-11 15:51:53","622"
"A36XEP5H6KBQIB","caus_thomas_fire_v4","3A0EX8ZRN8P5EH88SYRFVLGZYS6YBR","7","2","0","Yes","1","0","1436","2017-10-11 15:51:53","623"
"A34F2ESTZYTWRM","caus_thomas_fire_v4","336KAV9KYQTBQ48C95Y4USDV4MTY2P","5","4","0","No","1","0","4041","2017-10-11 15:51:54","624"
"AWE9A4ZOP9LNU
","caus_thomas_fire_v4","3U5JL4WY5KAWTDXP8NVQ4T3KMUW4XM","3","5","0","Yes","1","1","3658","2017-10-11 15:51:54","625"
"A1R0689JPSQ3OF","caus_thomas_fire_v4","3LQ8PUHQFLTTFUWPO8F8V8P93MDIHL","1","8","0","No","1","0","4867","2017-10-11 15:51:54","626"
"A1MVPAAPFIWETH","caus_thomas_fire_v4","3KJYX6QCM9CUS6BFBFHCMAVIOGDVJ0","2","0","0","No","1","1","3276","2017-10-11 15:51:55","627"
" A3NLJS5TGM8ZST","caus_thomas_fire_v4","3DZQRBDBSLG3F0SMEZKKVGUMTFXS3G","6","0","0","Yes","0","0","5866","2017-10-11 15:51:55","628"
"ALM8YFO0272UR","caus_thomas_fire_v4","3I02618YA07Q12PD12CRNKFBJ8APU5","2","7","0","No","1","0","4151","2017-10-11 15:51:55","629"
"ATADQXPHL10Y8","caus_thomas_fire_v4","39LNWE0K4UXYKG29O7M7ENEZXUFUIY","0","4","0","No","1","0","7722","2017-10-11 15:51:55","630"
"A3HPPDI53JMPW","caus_thomas_fire_v4","3PPTZCWALQLSNDK272QO4HK0QMBZQV","8","3","0","No","1","0","6699","2017-10-11 15:51:55","631"
"A2T5CROJ0FWIJY","caus_thomas_fire_v4","3G0WWMR1UVLY6O6J4EFU9UDRG83NQ2","4","4","0","Yes","1","1","4012","2017-10-11 15:51:56","632"
"A2PLPSH6IW00IA","caus_thomas_fire_v4","3X31TUMD7XNK1KJH7M90V11U31BL13","1","8","0","Yes","1","1","7693","2017-10-11 15:51:56","633"
"A36XEP5H6KBQIB","caus_thomas_fire_v4","3A0EX8ZRN8P5EH88SYRFVLGZYS6YBR","8","6","0","Yes","0","0","1971","2017-10-11 15:51:56","634"
"A1RK314J53UKIN","caus_thomas_fire_v4","39O5D9O87TTN8J3QHDUKGBQ47CC3CY","0","5","0","No","1","0","5995","2017-10-11 15:51:56","635"
"A1K8E6PV2GPJ3Q","caus_thomas_fire_v4","3I3WADAZ9Q5RVNNXL1R4Q8I5AMM5ON","4","6","0","Yes","1","1","7306","2017-10-11 15:51:57","636"
"A17V85U8PXS4LJ","caus_thomas_fire_v4","3EQHHY4HQST33A6ZXIEWLZ93J0V5G0","7","1","0","Yes","0","1","3561","2017-10-11 15:51:57","637"
"a1wmojnu4ffqy8","caus_thomas_fire_v4","3QXNC7EIPIWPTTXQM62ACNRPYFP09J","1","2","0","Yes","1","1","5991","2017-10-11 15:51:57","638"
"A1PZ1YZAQEXRSQ","caus_thomas_fire_v4","33LKR6A5KEL8KXRMGVBRHSBBXEXT1E","6","2","0","Yes","1","1","4733","2017-10-11 15:51:58","639"
"A3SBDWO5M0G2L0","caus_thomas_fire_v4","3YZ8UPK3VTN77DG9WXQL3KG4KPVUCW","9","7","0","Yes","1","1","5831","2017-10-11 15:51:58","640"
" A2DJQD3KQYBUMB
 A2DJQD3KQYBUMB
","caus_thomas_fire_v4","3FE7TXL1LIO2H2HQIVHAH6AT5DD2QR","6","2","0","Yes","1","0","8466","2017-10-11 15:51:58","641"
"A34F2ESTZYTWRM","caus_thomas_fire_v4","336KAV9KYQTBQ48C95Y4USDV4MTY2P","6","3","0","No","1","0","3818","2017-10-11 15:51:58","642"
"A2NTS2HNDOLRCR","caus_thomas_fire_v4","3DR23U6WE5F74YLYSJ66OCU5MN1TEX","0","1","0","Yes","0","0","4885","2017-10-11 15:51:59","643"
"A36XEP5H6KBQIB","caus_thomas_fire_v4","3A0EX8ZRN8P5EH88SYRFVLGZYS6YBR","9","0","0","Yes","0","0","1931","2017-10-11 15:51:59","644"
"A3FA8CP9DMTB1P","caus_thomas_fire_v4","3IKZ72A5B4H1FZGAQY40XV9D96UNF8","2","8","0","Yes","1","1","8664","2017-10-11 15:51:59","645"
"A1R0689JPSQ3OF","caus_thomas_fire_v4","3LQ8PUHQFLTTFUWPO8F8V8P93MDIHL","2","3","0","No","1","0","4390","2017-10-11 15:51:59","646"
"AWE9A4ZOP9LNU
","caus_thomas_fire_v4","3U5JL4WY5KAWTDXP8NVQ4T3KMUW4XM","4","2","0","Yes","1","1","4472","2017-10-11 15:51:59","647"
"A2C6KUVF0FAIY8","caus_thomas_fire_v4","30BUDKLTXDW5JWA8RNO8LWOR6KG5EJ","1","5","0","Yes","1","1","6404","2017-10-11 15:52:00","648"
"A5PORDD6QMIE8","caus_thomas_fire_v4","3OS46CRSLF0I4BW8RWNND6QD2ATV6U","0","9","0","Yes","1","1","11706","2017-10-11 15:52:00","649"
"A2T5CROJ0FWIJY","caus_thomas_fire_v4","3G0WWMR1UVLY6O6J4EFU9UDRG83NQ2","5","6","0","Yes","1","1","3533","2017-10-11 15:52:00","650"
"A1K8E6PV2GPJ3Q","caus_thomas_fire_v4","3I3WADAZ9Q5RVNNXL1R4Q8I5AMM5ON","5","9","0","Yes","1","1","2455","2017-10-11 15:52:00","651"
"A2PCUGTDC57PJI","caus_thomas_fire_v4","378XPAWRUCEE57OBI25GEM25QRNIAA","9","4","0","Yes","0","0","9155","2017-10-11 15:52:00","652"
"A2ZX7580NVWA61","caus_thomas_fire_v4","3VSOLARPKBALALWN5TKTELPW1R939H","4","7","0","Yes","1","1","6796","2017-10-11 15:52:00","653"
"A1MVPAAPFIWETH","caus_thomas_fire_v4","3KJYX6QCM9CUS6BFBFHCMAVIOGDVJ0","3","9","0","Yes","1","1","4573","2017-10-11 15:52:01","654"
"AKSQ73RWZ9428","caus_thomas_fire_v4","3570Y55XZPK15YGJ8KJTWW7WE5YYG8","2","5","0","Yes","1","1","7669","2017-10-11 15:52:01","655"
" A3NLJS5TGM8ZST","caus_thomas_fire_v4","3DZQRBDBSLG3F0SMEZKKVGUMTFXS3G","7","1","0","No","1","0","4827","2017-10-11 15:52:01","656"
"A2PLPSH6IW00IA","caus_thomas_fire_v4","3X31TUMD7XNK1KJH7M90V11U31BL13","2","2","0","Yes","1","1","4886","2017-10-11 15:52:02","657"
"ALM8YFO0272UR","caus_thomas_fire_v4","3I02618YA07Q12PD12CRNKFBJ8APU5","3","2","0","Yes","1","0","5193","2017-10-11 15:52:02","658"
"A1RK314J53UKIN","caus_thomas_fire_v4","39O5D9O87TTN8J3QHDUKGBQ47CC3CY","1","8","0","No","1","0","4475","2017-10-11 15:52:02","659"
"A1PZ1YZAQEXRSQ","caus_thomas_fire_v4","33LKR6A5KEL8KXRMGVBRHSBBXEXT1E","7","4","0","Yes","1","1","3305","2017-10-11 15:52:02","660"
"A17V85U8PXS4LJ","caus_thomas_fire_v4","3EQHHY4HQST33A6ZXIEWLZ93J0V5G0","8","7","0","Yes","1","1","4243","2017-10-11 15:52:02","661"
"A1K8E6PV2GPJ3Q","caus_thomas_fire_v4","3I3WADAZ9Q5RVNNXL1R4Q8I5AMM5ON","6","4","0",,"0","1","2005","2017-10-11 15:52:03","662"
" A2DJQD3KQYBUMB
 A2DJQD3KQYBUMB
","caus_thomas_fire_v4","3FE7TXL1LIO2H2HQIVHAH6AT5DD2QR","7","0","0","No","1","0","3867","2017-10-11 15:52:03","663"
"A2NTS2HNDOLRCR","caus_thomas_fire_v4","3DR23U6WE5F74YLYSJ66OCU5MN1TEX","1","4","0","No","1","0","3869","2017-10-11 15:52:04","664"
"A2ZX7580NVWA61","caus_thomas_fire_v4","3VSOLARPKBALALWN5TKTELPW1R939H","5","4","0","Yes","1","1","2427","2017-10-11 15:52:04","665"
"A3HPPDI53JMPW","caus_thomas_fire_v4","3PPTZCWALQLSNDK272QO4HK0QMBZQV","9","7","0","No","1","0","8171","2017-10-11 15:52:05","666"
"A2T5CROJ0FWIJY","caus_thomas_fire_v4","3G0WWMR1UVLY6O6J4EFU9UDRG83NQ2","6","2","0","Yes","1","1","3635","2017-10-11 15:52:05","667"
"AWE9A4ZOP9LNU
","caus_thomas_fire_v4","3U5JL4WY5KAWTDXP8NVQ4T3KMUW4XM","5","1","0","No","1","1","4401","2017-10-11 15:52:05","668"
"A1PZ1YZAQEXRSQ","caus_thomas_fire_v4","33LKR6A5KEL8KXRMGVBRHSBBXEXT1E","8","1","0","No","1","1","1946","2017-10-11 15:52:05","669"
"A3FA8CP9DMTB1P","caus_thomas_fire_v4","3IKZ72A5B4H1FZGAQY40XV9D96UNF8","3","4","0","Yes","1","1","4717","2017-10-11 15:52:05","670"
"A1MVPAAPFIWETH","caus_thomas_fire_v4","3KJYX6QCM9CUS6BFBFHCMAVIOGDVJ0","4","5","0","Yes","1","1","3781","2017-10-11 15:52:05","671"
"A2C6KUVF0FAIY8","caus_thomas_fire_v4","30BUDKLTXDW5JWA8RNO8LWOR6KG5EJ","2","6","0","Yes","1","1","5095","2017-10-11 15:52:06","672"
"AKSQ73RWZ9428","caus_thomas_fire_v4","3570Y55XZPK15YGJ8KJTWW7WE5YYG8","3","0","0","No","1","1","3783","2017-10-11 15:52:06","673"
"A1K8E6PV2GPJ3Q","caus_thomas_fire_v4","3I3WADAZ9Q5RVNNXL1R4Q8I5AMM5ON","7","3","0","Yes","1","1","1876","2017-10-11 15:52:06","674"
"A1R0689JPSQ3OF","caus_thomas_fire_v4","3LQ8PUHQFLTTFUWPO8F8V8P93MDIHL","3","9","0","No","1","0","5802","2017-10-11 15:52:06","675"
"A1ZIIU5H8A40Z3","caus_thomas_fire_v4","3DIP6YHAPCTO6ETAPLVBXGYI8AH8EO","0","5","0","Yes","1","1","4436","2017-10-11 15:52:06","676"
"A5PORDD6QMIE8","caus_thomas_fire_v4","3OS46CRSLF0I4BW8RWNND6QD2ATV6U","1","6","0","Yes","1","1","5201","2017-10-11 15:52:06","677"
"A34F2ESTZYTWRM","caus_thomas_fire_v4","336KAV9KYQTBQ48C95Y4USDV4MTY2P","7","8","0","No","1","0","7207","2017-10-11 15:52:07","678"
"A2ZX7580NVWA61","caus_thomas_fire_v4","3VSOLARPKBALALWN5TKTELPW1R939H","6","5","0","Yes","1","1","2099","2017-10-11 15:52:07","679"
"A2PLPSH6IW00IA","caus_thomas_fire_v4","3X31TUMD7XNK1KJH7M90V11U31BL13","3","9","0","Yes","1","1","4739","2017-10-11 15:52:07","680"
"ALM8YFO0272UR","caus_thomas_fire_v4","3I02618YA07Q12PD12CRNKFBJ8APU5","4","6","0","No","1","0","4721","2017-10-11 15:52:07","681"
"A17V85U8PXS4LJ","caus_thomas_fire_v4","3EQHHY4HQST33A6ZXIEWLZ93J0V5G0","9","6","0","Yes","1","1","4084","2017-10-11 15:52:07","682"
" A3NLJS5TGM8ZST","caus_thomas_fire_v4","3DZQRBDBSLG3F0SMEZKKVGUMTFXS3G","8","2","0","Yes","1","0","5358","2017-10-11 15:52:08","683"
"ATADQXPHL10Y8","caus_thomas_fire_v4","39LNWE0K4UXYKG29O7M7ENEZXUFUIY","1","3","0","No","1","0","11450","2017-10-11 15:52:08","684"
"a1wmojnu4ffqy8","caus_thomas_fire_v4","3QXNC7EIPIWPTTXQM62ACNRPYFP09J","2","3","0","Yes","1","1","9747","2017-10-11 15:52:08","685"
"AUZBKS5UI3MXB","caus_thomas_fire_v4","3TU5ZICBRD2D3HJFYCQBRXNWRD4Q8H","0","6","0","Yes","1","1","4032","2017-10-11 15:52:08","686"
"A1K8E6PV2GPJ3Q","caus_thomas_fire_v4","3I3WADAZ9Q5RVNNXL1R4Q8I5AMM5ON","8","8","0","No","0","1","1472","2017-10-11 15:52:08","687"
"AHV4U78TUUDKI","caus_thomas_fire_v4","3R6P78PK7KC5OCHPYEWUOFFHZ3GTGE","0","8","0","No","1","0","6959","2017-10-11 15:52:09","688"
"A2T5CROJ0FWIJY","caus_thomas_fire_v4","3G0WWMR1UVLY6O6J4EFU9UDRG83NQ2","7","7","0","Yes","1","1","3093","2017-10-11 15:52:09","689"
"A1RK314J53UKIN","caus_thomas_fire_v4","39O5D9O87TTN8J3QHDUKGBQ47CC3CY","2","1","0","No","1","0","5937","2017-10-11 15:52:09","690"
" A2DJQD3KQYBUMB
 A2DJQD3KQYBUMB
","caus_thomas_fire_v4","3FE7TXL1LIO2H2HQIVHAH6AT5DD2QR","8","9","0","No","1","0","4807","2017-10-11 15:52:09","691"
"A2ZX7580NVWA61","caus_thomas_fire_v4","3VSOLARPKBALALWN5TKTELPW1R939H","7","2","0","Yes","1","1","1619","2017-10-11 15:52:09","692"
"A1PZ1YZAQEXRSQ","caus_thomas_fire_v4","33LKR6A5KEL8KXRMGVBRHSBBXEXT1E","9","9","0","Yes","1","1","3846","2017-10-11 15:52:10","693"
"A2NTS2HNDOLRCR","caus_thomas_fire_v4","3DR23U6WE5F74YLYSJ66OCU5MN1TEX","2","6","0","No","1","0","5313","2017-10-11 15:52:10","694"
"A1MVPAAPFIWETH","caus_thomas_fire_v4","3KJYX6QCM9CUS6BFBFHCMAVIOGDVJ0","5","6","0","Yes","1","1","3742","2017-10-11 15:52:10","695"
"AKSQ73RWZ9428","caus_thomas_fire_v4","3570Y55XZPK15YGJ8KJTWW7WE5YYG8","4","2","0","Yes","1","1","3894","2017-10-11 15:52:11","696"
"A1K8E6PV2GPJ3Q","caus_thomas_fire_v4","3I3WADAZ9Q5RVNNXL1R4Q8I5AMM5ON","9","5","0","Yes","1","1","1415","2017-10-11 15:52:11","697"
"A1ZIIU5H8A40Z3","caus_thomas_fire_v4","3DIP6YHAPCTO6ETAPLVBXGYI8AH8EO","1","9","0","Yes","1","1","3863","2017-10-11 15:52:11","698"
"AWE9A4ZOP9LNU
","caus_thomas_fire_v4","3U5JL4WY5KAWTDXP8NVQ4T3KMUW4XM","6","3","0","Yes","1","1","5362","2017-10-11 15:52:11","699"
"A3FA8CP9DMTB1P","caus_thomas_fire_v4","3IKZ72A5B4H1FZGAQY40XV9D96UNF8","4","5","0","Yes","1","1","5320","2017-10-11 15:52:11","700"
"A34F2ESTZYTWRM","caus_thomas_fire_v4","336KAV9KYQTBQ48C95Y4USDV4MTY2P","8","7","0","No","1","0","3656","2017-10-11 15:52:11","701"
"A5PORDD6QMIE8","caus_thomas_fire_v4","3OS46CRSLF0I4BW8RWNND6QD2ATV6U","2","8","0","Yes","1","1","4978","2017-10-11 15:52:12","702"
"ALM8YFO0272UR","caus_thomas_fire_v4","3I02618YA07Q12PD12CRNKFBJ8APU5","5","0","0","No","1","0","3807","2017-10-11 15:52:12","703"
"ATADQXPHL10Y8","caus_thomas_fire_v4","39LNWE0K4UXYKG29O7M7ENEZXUFUIY","2","1","0","No","1","0","3438","2017-10-11 15:52:12","704"
"A2C6KUVF0FAIY8","caus_thomas_fire_v4","30BUDKLTXDW5JWA8RNO8LWOR6KG5EJ","3","1","0","No","1","1","5779","2017-10-11 15:52:12","705"
"A2T5CROJ0FWIJY","caus_thomas_fire_v4","3G0WWMR1UVLY6O6J4EFU9UDRG83NQ2","8","3","0","Yes","1","1","2837","2017-10-11 15:52:13","706"
"AHV4U78TUUDKI","caus_thomas_fire_v4","3R6P78PK7KC5OCHPYEWUOFFHZ3GTGE","1","2","0","Yes","1","0","3456","2017-10-11 15:52:13","707"
"AUZBKS5UI3MXB","caus_thomas_fire_v4","3TU5ZICBRD2D3HJFYCQBRXNWRD4Q8H","1","5","0","Yes","1","1","3630","2017-10-11 15:52:13","708"
" A3NLJS5TGM8ZST","caus_thomas_fire_v4","3DZQRBDBSLG3F0SMEZKKVGUMTFXS3G","9","6","0","No","1","0","4640","2017-10-11 15:52:13","709"
"A1R0689JPSQ3OF","caus_thomas_fire_v4","3LQ8PUHQFLTTFUWPO8F8V8P93MDIHL","4","4","0","No","1","0","6531","2017-10-11 15:52:14","710"
" A2DJQD3KQYBUMB
 A2DJQD3KQYBUMB
","caus_thomas_fire_v4","3FE7TXL1LIO2H2HQIVHAH6AT5DD2QR","9","6","0","No","1","0","3739","2017-10-11 15:52:14","711"
"A2PLPSH6IW00IA","caus_thomas_fire_v4","3X31TUMD7XNK1KJH7M90V11U31BL13","4","0","0","No","1","1","5676","2017-10-11 15:52:14","712"
"A1MVPAAPFIWETH","caus_thomas_fire_v4","3KJYX6QCM9CUS6BFBFHCMAVIOGDVJ0","6","8","0","Yes","1","1","2883","2017-10-11 15:52:14","713"
"AKSQ73RWZ9428","caus_thomas_fire_v4","3570Y55XZPK15YGJ8KJTWW7WE5YYG8","5","6","0","Yes","1","1","3119","2017-10-11 15:52:15","714"
"A1RK314J53UKIN","caus_thomas_fire_v4","39O5D9O87TTN8J3QHDUKGBQ47CC3CY","3","0","0","No","1","0","5261","2017-10-11 15:52:15","715"
"AWE9A4ZOP9LNU
","caus_thomas_fire_v4","3U5JL4WY5KAWTDXP8NVQ4T3KMUW4XM","7","0","0","No","1","1","3141","2017-10-11 15:52:15","716"
"A2NTS2HNDOLRCR","caus_thomas_fire_v4","3DR23U6WE5F74YLYSJ66OCU5MN1TEX","3","5","0","No","1","0","4441","2017-10-11 15:52:15","717"
"A1ZIIU5H8A40Z3","caus_thomas_fire_v4","3DIP6YHAPCTO6ETAPLVBXGYI8AH8EO","2","0","0","No","1","1","3642","2017-10-11 15:52:16","718"
"ATADQXPHL10Y8","caus_thomas_fire_v4","39LNWE0K4UXYKG29O7M7ENEZXUFUIY","3","0","0","No","1","0","2656","2017-10-11 15:52:16","719"
"A3FA8CP9DMTB1P","caus_thomas_fire_v4","3IKZ72A5B4H1FZGAQY40XV9D96UNF8","5","3","0","Yes","1","1","4212","2017-10-11 15:52:17","720"
"ALM8YFO0272UR","caus_thomas_fire_v4","3I02618YA07Q12PD12CRNKFBJ8APU5","6","9","0","No","1","0","3570","2017-10-11 15:52:17","721"
"AB66CTVQ90RCV","caus_thomas_fire_v4","34Q075JO1XE74OUVITNHXH9603110B","0","5","0","No","1","0","4996","2017-10-11 15:52:17","722"
"a1wmojnu4ffqy8","caus_thomas_fire_v4","3QXNC7EIPIWPTTXQM62ACNRPYFP09J","3","4","0","Yes","1","1","8339","2017-10-11 15:52:18","723"
"A3VM1B415Z17Y8","caus_thomas_fire_v4","3QL2OFSM96JUCNW0ZWEZPPOACT2CNM","0","9","0","Yes","1","1","4589","2017-10-11 15:52:18","724"
"A2C6KUVF0FAIY8","caus_thomas_fire_v4","30BUDKLTXDW5JWA8RNO8LWOR6KG5EJ","4","8","0","Yes","1","1","4740","2017-10-11 15:52:18","725"
"A2T5CROJ0FWIJY","caus_thomas_fire_v4","3G0WWMR1UVLY6O6J4EFU9UDRG83NQ2","9","1","0","No","1","1","4493","2017-10-11 15:52:18","726"
"AHV4U78TUUDKI","caus_thomas_fire_v4","3R6P78PK7KC5OCHPYEWUOFFHZ3GTGE","2","9","0","No","1","0","4179","2017-10-11 15:52:18","727"
"A1MVPAAPFIWETH","caus_thomas_fire_v4","3KJYX6QCM9CUS6BFBFHCMAVIOGDVJ0","7","7","0","Yes","1","1","3470","2017-10-11 15:52:18","728"
"AUZBKS5UI3MXB","caus_thomas_fire_v4","3TU5ZICBRD2D3HJFYCQBRXNWRD4Q8H","2","3","0","Yes","1","1","4642","2017-10-11 15:52:18","729"
"AKSQ73RWZ9428","caus_thomas_fire_v4","3570Y55XZPK15YGJ8KJTWW7WE5YYG8","6","9","0","Yes","1","1","2743","2017-10-11 15:52:19","730"
"A5PORDD6QMIE8","caus_thomas_fire_v4","3OS46CRSLF0I4BW8RWNND6QD2ATV6U","3","4","0","Yes","1","1","6417","2017-10-11 15:52:20","731"
"A1R0689JPSQ3OF","caus_thomas_fire_v4","3LQ8PUHQFLTTFUWPO8F8V8P93MDIHL","5","5","0","No","1","0","5278","2017-10-11 15:52:20","732"
"A2PLPSH6IW00IA","caus_thomas_fire_v4","3X31TUMD7XNK1KJH7M90V11U31BL13","5","4","0","Yes","1","1","5230","2017-10-11 15:52:20","733"
"A1ZIIU5H8A40Z3","caus_thomas_fire_v4","3DIP6YHAPCTO6ETAPLVBXGYI8AH8EO","3","7","0","Yes","1","1","3643","2017-10-11 15:52:20","734"
"A2NTS2HNDOLRCR","caus_thomas_fire_v4","3DR23U6WE5F74YLYSJ66OCU5MN1TEX","4","7","0","No","1","0","4180","2017-10-11 15:52:21","735"
"AWE9A4ZOP9LNU
","caus_thomas_fire_v4","3U5JL4WY5KAWTDXP8NVQ4T3KMUW4XM","8","6","0","Yes","1","1","4542","2017-10-11 15:52:21","736"
"AZPXXTHW5SL8Y","caus_thomas_fire_v4","3L0KT67Y8EH4V3PA3KDALAQZ2GSYSS","0","2","0","Yes","1","0","4630","2017-10-11 15:52:21","737"
"A3FA8CP9DMTB1P","caus_thomas_fire_v4","3IKZ72A5B4H1FZGAQY40XV9D96UNF8","6","0","0","No","1","1","3438","2017-10-11 15:52:21","738"
"A2ZV96GRXVSXK4","caus_thomas_fire_v4","3S0TNUHWKTJJE8FATQKRRYGX8YG8DV","0","6","0","Yes","1","1","5904","2017-10-11 15:52:21","739"
"A1RK314J53UKIN","caus_thomas_fire_v4","39O5D9O87TTN8J3QHDUKGBQ47CC3CY","4","9","0","No","1","0","5277","2017-10-11 15:52:21","740"
"ATADQXPHL10Y8","caus_thomas_fire_v4","39LNWE0K4UXYKG29O7M7ENEZXUFUIY","4","8","0","No","1","0","4359","2017-10-11 15:52:21","741"
"ALM8YFO0272UR","caus_thomas_fire_v4","3I02618YA07Q12PD12CRNKFBJ8APU5","7","5","0","No","1","0","4215","2017-10-11 15:52:22","742"
"A1MVPAAPFIWETH","caus_thomas_fire_v4","3KJYX6QCM9CUS6BFBFHCMAVIOGDVJ0","8","3","0","Yes","1","1","2867","2017-10-11 15:52:22","743"
"A3MJSYSWX0Q4WQ","caus_thomas_fire_v4","3FDJT1UU74985W2IN9ZBJR1WQHC5K3","0","8","0","No","1","0","8349","2017-10-11 15:52:22","744"
"AB66CTVQ90RCV","caus_thomas_fire_v4","34Q075JO1XE74OUVITNHXH9603110B","1","2","0","Yes","1","0","4345","2017-10-11 15:52:22","745"
"A3VM1B415Z17Y8","caus_thomas_fire_v4","3QL2OFSM96JUCNW0ZWEZPPOACT2CNM","1","2","0","Yes","1","1","4039","2017-10-11 15:52:23","746"
"AUZBKS5UI3MXB","caus_thomas_fire_v4","3TU5ZICBRD2D3HJFYCQBRXNWRD4Q8H","3","8","0","Yes","1","1","3532","2017-10-11 15:52:23","747"
"AKSQ73RWZ9428","caus_thomas_fire_v4","3570Y55XZPK15YGJ8KJTWW7WE5YYG8","7","4","0","Yes","1","1","3372","2017-10-11 15:52:23","748"
"A2C6KUVF0FAIY8","caus_thomas_fire_v4","30BUDKLTXDW5JWA8RNO8LWOR6KG5EJ","5","9","0","Yes","1","1","4901","2017-10-11 15:52:24","749"
"A1U4W67HW5V0FO","caus_thomas_fire_v4","32ZKVD547FO4YEBK3DYP5RKMPRC3BR","0","0","0","No","1","1","8414","2017-10-11 15:52:24","750"
"AHV4U78TUUDKI","caus_thomas_fire_v4","3R6P78PK7KC5OCHPYEWUOFFHZ3GTGE","3","3","0","No","1","0","5258","2017-10-11 15:52:24","751"
"A5PORDD6QMIE8","caus_thomas_fire_v4","3OS46CRSLF0I4BW8RWNND6QD2ATV6U","4","0","0","No","1","1","3786","2017-10-11 15:52:24","752"
"AWE9A4ZOP9LNU
","caus_thomas_fire_v4","3U5JL4WY5KAWTDXP8NVQ4T3KMUW4XM","9","8","0","Yes","1","1","3017","2017-10-11 15:52:25","753"
"a1wmojnu4ffqy8","caus_thomas_fire_v4","3QXNC7EIPIWPTTXQM62ACNRPYFP09J","4","1","0","Yes","0","1","6378","2017-10-11 15:52:25","754"
"A1ZIIU5H8A40Z3","caus_thomas_fire_v4","3DIP6YHAPCTO6ETAPLVBXGYI8AH8EO","4","6","0","Yes","1","1","3796","2017-10-11 15:52:25","755"
"A2LGSV2MKHWA49","caus_thomas_fire_v4","39U1BHVTDLS4U0513ZPA5LQ8VYC3TH","0","4","0","No","1","0","5293","2017-10-11 15:52:25","756"
"A2PLPSH6IW00IA","caus_thomas_fire_v4","3X31TUMD7XNK1KJH7M90V11U31BL13","6","6","0","Yes","1","1","4230","2017-10-11 15:52:25","757"
"A3FA8CP9DMTB1P","caus_thomas_fire_v4","3IKZ72A5B4H1FZGAQY40XV9D96UNF8","7","1","0","No","1","1","3657","2017-10-11 15:52:26","758"
"A2ZV96GRXVSXK4","caus_thomas_fire_v4","3S0TNUHWKTJJE8FATQKRRYGX8YG8DV","1","9","0","Yes","1","1","4438","2017-10-11 15:52:27","759"
"A1R0689JPSQ3OF","caus_thomas_fire_v4","3LQ8PUHQFLTTFUWPO8F8V8P93MDIHL","6","2","0","Yes","1","0","5699","2017-10-11 15:52:27","760"
"A2NTS2HNDOLRCR","caus_thomas_fire_v4","3DR23U6WE5F74YLYSJ66OCU5MN1TEX","5","9","0","No","1","0","5072","2017-10-11 15:52:27","761"
"A34F2ESTZYTWRM","caus_thomas_fire_v4","336KAV9KYQTBQ48C95Y4USDV4MTY2P","9","5","0","No","1","0","14325","2017-10-11 15:52:27","762"
"A3VM1B415Z17Y8","caus_thomas_fire_v4","3QL2OFSM96JUCNW0ZWEZPPOACT2CNM","2","6","0","Yes","1","1","2836","2017-10-11 15:52:27","763"
"ALM8YFO0272UR","caus_thomas_fire_v4","3I02618YA07Q12PD12CRNKFBJ8APU5","8","4","0","No","1","0","3768","2017-10-11 15:52:27","764"
"A328WBNP9A8KBO
","caus_thomas_fire_v4","3X3OR7WPZZ12CK3267IFABO2H7I8LB","0","7","0","No","1","0","5217","2017-10-11 15:52:27","765"
"A1MVPAAPFIWETH","caus_thomas_fire_v4","3KJYX6QCM9CUS6BFBFHCMAVIOGDVJ0","9","4","0","Yes","1","1","3846","2017-10-11 15:52:27","766"
"AKSQ73RWZ9428","caus_thomas_fire_v4","3570Y55XZPK15YGJ8KJTWW7WE5YYG8","8","8","0","Yes","1","1","3258","2017-10-11 15:52:27","767"
"AB66CTVQ90RCV","caus_thomas_fire_v4","34Q075JO1XE74OUVITNHXH9603110B","2","3","0","No","1","0","4309","2017-10-11 15:52:28","768"
"A1LK30EUILW9QH","caus_thomas_fire_v4","3GM6G9ZBKNY5GMDB9HUP1KZEVPSTMM","0","4","0","Yes","1","1","7591","2017-10-11 15:52:28","769"
"AUZBKS5UI3MXB","caus_thomas_fire_v4","3TU5ZICBRD2D3HJFYCQBRXNWRD4Q8H","4","0","0","No","1","1","4461","2017-10-11 15:52:28","770"
"A1RK314J53UKIN","caus_thomas_fire_v4","39O5D9O87TTN8J3QHDUKGBQ47CC3CY","5","6","0","No","1","0","6253","2017-10-11 15:52:29","771"
"AZPXXTHW5SL8Y","caus_thomas_fire_v4","3L0KT67Y8EH4V3PA3KDALAQZ2GSYSS","1","1","0","No","1","0","7365","2017-10-11 15:52:29","772"
"AHV4U78TUUDKI","caus_thomas_fire_v4","3R6P78PK7KC5OCHPYEWUOFFHZ3GTGE","4","1","0","No","1","0","3830","2017-10-11 15:52:29","773"
"A2C6KUVF0FAIY8","caus_thomas_fire_v4","30BUDKLTXDW5JWA8RNO8LWOR6KG5EJ","6","7","0","Yes","1","1","5327","2017-10-11 15:52:30","774"
"A3FA8CP9DMTB1P","caus_thomas_fire_v4","3IKZ72A5B4H1FZGAQY40XV9D96UNF8","8","6","0","Yes","1","1","3891","2017-10-11 15:52:31","775"
"A5PORDD6QMIE8","caus_thomas_fire_v4","3OS46CRSLF0I4BW8RWNND6QD2ATV6U","5","3","0","Yes","1","1","5301","2017-10-11 15:52:31","776"
"A2PLPSH6IW00IA","caus_thomas_fire_v4","3X31TUMD7XNK1KJH7M90V11U31BL13","7","7","0","Yes","1","1","4692","2017-10-11 15:52:31","777"
"A2LGSV2MKHWA49","caus_thomas_fire_v4","39U1BHVTDLS4U0513ZPA5LQ8VYC3TH","1","5","0","No","1","0","4882","2017-10-11 15:52:31","778"
"A3MJSYSWX0Q4WQ","caus_thomas_fire_v4","3FDJT1UU74985W2IN9ZBJR1WQHC5K3","1","2","0","Yes","1","0","7687","2017-10-11 15:52:31","779"
"A2ZV96GRXVSXK4","caus_thomas_fire_v4","3S0TNUHWKTJJE8FATQKRRYGX8YG8DV","2","0","0","No","1","1","3793","2017-10-11 15:52:31","780"
"AKSQ73RWZ9428","caus_thomas_fire_v4","3570Y55XZPK15YGJ8KJTWW7WE5YYG8","9","3","0","Yes","1","1","3058","2017-10-11 15:52:31","781"
"ALM8YFO0272UR","caus_thomas_fire_v4","3I02618YA07Q12PD12CRNKFBJ8APU5","9","1","0","No","1","0","3654","2017-10-11 15:52:31","782"
"AB66CTVQ90RCV","caus_thomas_fire_v4","34Q075JO1XE74OUVITNHXH9603110B","3","0","0","Yes","0","0","2734","2017-10-11 15:52:32","783"
"A1R0689JPSQ3OF","caus_thomas_fire_v4","3LQ8PUHQFLTTFUWPO8F8V8P93MDIHL","7","1","0","No","1","0","4221","2017-10-11 15:52:32","784"
"A1U4W67HW5V0FO","caus_thomas_fire_v4","32ZKVD547FO4YEBK3DYP5RKMPRC3BR","1","7","0","Yes","1","1","6884","2017-10-11 15:52:32","785"
"A328WBNP9A8KBO
","caus_thomas_fire_v4","3X3OR7WPZZ12CK3267IFABO2H7I8LB","1","8","0","No","1","0","4364","2017-10-11 15:52:32","786"
"A1QEQOI98976S0","caus_thomas_fire_v4","35BLDD71I6YKSLGJT1KYA4J87EQVZL","0","2","0","Yes","1","0","7744","2017-10-11 15:52:33","787"
"AHV4U78TUUDKI","caus_thomas_fire_v4","3R6P78PK7KC5OCHPYEWUOFFHZ3GTGE","5","5","0","No","1","0","4082","2017-10-11 15:52:34","788"
"A2NTS2HNDOLRCR","caus_thomas_fire_v4","3DR23U6WE5F74YLYSJ66OCU5MN1TEX","6","3","0","No","1","0","6508","2017-10-11 15:52:34","789"
"A2C6KUVF0FAIY8","caus_thomas_fire_v4","30BUDKLTXDW5JWA8RNO8LWOR6KG5EJ","7","3","0","Yes","1","1","3813","2017-10-11 15:52:35","790"
