"subject","version","assignmentId","rating","rating2","rating3","question_ind","trial_ind","focal_high","alt_high","alt2_high","greenSecond","rt","stamp","id"
"A1RXG8RE0SJ4LC","caus_thomas_fire_v6","35BLDD71I6YKSLGJT1KYA4J88MTVZ5","8","0","8","1,0,2","0","1","1","1",,"7607","2017-10-17 13:57:21","24010"
"A2FI2VTA8JVYS6","caus_thomas_fire_v6","3NS0A6KXC491AOQO46LCA3GYL75GZ1","5","6","3","0,1,2","0","1","1","0",,"26004","2017-10-17 13:57:24","24011"
"A3UNUH7D8FKJ3L","caus_thomas_fire_v6","3BEFOD78W6ULZ1YLUGTHTCNMGYEM43","0","8","0","2,0,1","0","1","1","0",,"13317","2017-10-17 13:57:28","24012"
"A33QX0QXEX943S","caus_thomas_fire_v6","358010RM5EUVNQG4SJWDDJ3X0MVVX8","5","6","5","1,2,0","0","0","1","1",,"7636","2017-10-17 13:57:29","24013"
"A33921T4I2XIRS","caus_thomas_fire_v6","34S9DKFK73Q7FQX5VOWOMGGTGPNNYP","0","7","0","2,0,1","0","1","1","0",,"15506","2017-10-17 13:57:31","24014"
"A25R2OI9L2Q1OW","caus_thomas_fire_v6","3EO896NRAWWFFE7Q6KHXLS7XS30JTS","4","0","8","2,0,1","0","1","1","1",,"18001","2017-10-17 13:57:38","24015"
"A1U6SQML59J1LX","caus_thomas_fire_v6","35GCEFQ6I5P0GCE09RESR9RPH213ZH","0","8","7","0,1,2","0","1","1","0",,"12378","2017-10-17 13:57:45","24016"
"A4MNEMGPU0KAD","caus_thomas_fire_v6","3VD82FOHKQPCU8WC0BEC4EOF3BAOCX","3","5","5","0,1,2","0","1","1","0",,"18025","2017-10-17 13:57:47","24017"
"A2PDDOU75JXTN7","caus_thomas_fire_v6","3M68NM076H8QB4FRICIDC91AICJR6H","0","8","8","0,1,2","0","0","1","0",,"14489","2017-10-17 13:57:49","24018"
"A33FSJRW7E1XVV","caus_thomas_fire_v6","3GFK2QRXX9IZ0WWZCNIE72VREWNW59","4","5","1","2,1,0","0","1","1","1",,"20097","2017-10-17 13:57:54","24019"
"AMI7O28BUU547","caus_thomas_fire_v6","3W2LOLRXLBGXAJ0GKGCEMS6SJ73RKM","3","8","0","0,1,2","0","0","1","1",,"14923","2017-10-17 13:57:55","24020"
"AUDADS1HJVX6V","caus_thomas_fire_v6","3L0KT67Y8EH4V3PA3KDALAQZ3OVYSC","0","8","8","1,0,2","0","0","1","0",,"19260","2017-10-17 13:57:57","24021"
"A2WOU3CII8ER24","caus_thomas_fire_v6","3RYC5T2D73UYLAXWX8HMI9SRDH9RPN","2","7","7","1,2,0","0","0","1","0",,"10071","2017-10-17 13:58:08","24022"
"AS8BGRD5QFUTQ","caus_thomas_fire_v6","3R08VXYT7CWEN0AI0GXB5M9N52IW7O","1","1","1","1,2,0","0","0","1","0",,"18510","2017-10-17 13:58:12","24023"
"A3L4RJUHA0CJEA","caus_thomas_fire_v6","39K0FND3AHG01QE23H386F9M88AMAE","5","0","6","0,2,1","0","0","1","1",,"15065","2017-10-17 13:58:21","24024"
"A5ET25WTBJC0J","caus_thomas_fire_v6","3MTMREQS4VJW628G7J9VFDBD6AOWAF","2","6","3","2,1,0","0","0","1","0",,"16367","2017-10-17 13:58:22","24025"
"AJ9N1D8B96693","caus_thomas_fire_v6","3RGU30DZTA9B2JH6XNGLZEC5YV4MJU","2","8","7","2,0,1","0","0","1","0",,"16076","2017-10-17 13:58:23","24026"
"A2GF7PYHT21U3X","caus_thomas_fire_v6","3Z4XG4ZF48SXCEKRKQL3L5JPPOUX85","4","4","7","2,0,1","0","1","1","1",,"5775","2017-10-17 13:58:24","24027"
"A3UDXVVGJ88LS2","caus_thomas_fire_v6","34V1S5K3GS2K74J5OVIRLO1GCQE69A","0","7","7","0,2,1","0","0","1","0",,"34817","2017-10-17 13:58:27","24028"
"A2QX2B50DM45E2","caus_thomas_fire_v6","3D8YOU6S9ELIRW78M6DIHKOUPBO6U1","1","8","8","1,0,2","0","1","1","0",,"25142","2017-10-17 13:58:33","24029"
"AI9NJ89EXVDY1","caus_thomas_fire_v6","3BQU611VFPL7PNL3M2L35YSI2RM99O","8","0","8","2,0,1","0","0","1","1",,"11136","2017-10-17 13:58:33","24030"
"A2IGPW784OFV3D","caus_thomas_fire_v6","3EO896NRAWWFFE7Q6KHXLS7XS30TJ2","8","0","8","2,0,1","0","1","1","1",,"33686","2017-10-17 13:58:35","24031"
"A2VRDE2FHCBMF8","caus_thomas_fire_v6","3NQL1CS15R9KNV6EXFIFWXA62SPYVH","0","8","8","0,1,2","0","0","1","0",,"16050","2017-10-17 13:58:38","24032"
"A3S7I1TRSRWO73","caus_thomas_fire_v6","3TR2532VIPV9DGWEA794AIFJ8VQ6J5","5","1","1","2,0,1","0","1","1","1",,"25752","2017-10-17 13:58:39","24033"
"A1LB9JOMFQ1UMG","caus_thomas_fire_v6","3IRIK4HM3ALM52Q80FSINE2OIBH6CR","8","1","6","2,1,0","0","1","1","1",,"10228","2017-10-17 13:58:40","24034"
"AM3QYFU2FGENQ","caus_thomas_fire_v6","3018Q3ZVOIRRY6RU8PZPSE3WEV9RA7","1","5","3","2,1,0","0","1","1","0",,"25955","2017-10-17 13:58:42","24035"
"A3UQXYJ8EV62WE","caus_thomas_fire_v6","31JLPPHS2UVOH80T7I3BBBKLXYY3OF","8","0","6","2,0,1","0","1","1","1",,"14075","2017-10-17 13:58:43","24036"
"A63QNYB26OEZN","caus_thomas_fire_v6","3HVVDCPGTET5A32PSKI0VFML579TYW","8","0","0","1,2,0","0","1","1","1",,"22874","2017-10-17 13:58:45","24037"
"A1PKCBFB4QY19G","caus_thomas_fire_v6","3KOPY89HM83AGX9WR5B63F3ZY4O3JW","0","8","0","1,2,0","0","0","1","0",,"16902","2017-10-17 13:58:45","24038"
"A7BJQT4AKDHAO","caus_thomas_fire_v6","345LHZDEDXTJUDKQ34FKAHCAFKLU3I","7","4","4","2,1,0","0","1","1","1",,"29939","2017-10-17 13:58:46","24039"
"A3D6DQGF78M17W","caus_thomas_fire_v6","33C7UALJVLZPMDZYDX0WQWFOK9G18I","0","8","8","2,0,1","0","1","1","0",,"50736","2017-10-17 13:58:48","24040"
"AK9XE112RZO6Q","caus_thomas_fire_v6","3KXIR214I4HVSXUSKYAXE39OATY24T","8","8","8","1,2,0","0","1","1","0",,"14277","2017-10-17 13:58:58","24041"
"A1HSIZDCB5ERWT","caus_thomas_fire_v6","3KV0LJBBH2MS070J5SPU15YW8CYMRM","6","0","7","1,0,2","0","1","1","1",,"37111","2017-10-17 13:58:59","24042"
"A6VQ0UN0ETESM","caus_thomas_fire_v6","37XITHEISWAFRLOSS3VGY9TKEYURC9","0","8","8","2,0,1","0","0","1","0",,"24765","2017-10-17 13:59:11","24043"
"A2LGSV2MKHWA49","caus_thomas_fire_v6","3ZWFC4W1UU8MUX82J5LH6FENBBMRFK","0","7","8","1,2,0","0","0","1","0",,"18251","2017-10-17 13:59:13","24044"
"A0657006AJFWB5ZA91B2","caus_thomas_fire_v6","39KFRKBFINWPXBXHW3W115GY6ZSYOF","8","0","8","2,1,0","0","1","1","1",,"23845","2017-10-17 13:59:13","24045"
"A26SF9CTNKKBYB","caus_thomas_fire_v6","33SA9F9TRXVZWFPSNOBHBW14RPMWEA","7","1","1","2,1,0","0","0","1","1",,"24353","2017-10-17 13:59:14","24046"
"A25N0K40JAZTN1","caus_thomas_fire_v6","3R9WASFE2ZHVWOUTTMFUSIGMKS5ZFL","0","8","8","0,1,2","0","1","1","0",,"22726","2017-10-17 13:59:15","24047"
"A3Q1EZDNIUK41P","caus_thomas_fire_v6","38YMOXR4MU0VJ0WDH6SJZ89RARZ6W0","8","0","0","0,1,2","0","1","1","1",,"21628","2017-10-17 13:59:15","24048"
"A2KFZY7OYDJVF2","caus_thomas_fire_v6","3PWWM24LHSZWBYHUW10AVFPTCFU280","5","2","8","1,0,2","0","0","1","1",,"19028","2017-10-17 13:59:19","24049"
"A2WYEOT1O3OXPS","caus_thomas_fire_v6","3TYCR1GOTCKHWG4PFXISNVL6HORZLQ","8","0","8","0,1,2","0","1","1","1",,"19962","2017-10-17 13:59:22","24050"
"A3AIUG6ILEEBI7","caus_thomas_fire_v6","30BUDKLTXDW5JWA8RNO8LWOR7SJ5E3","5","0","7","1,0,2","0","0","1","1",,"13975","2017-10-17 13:59:22","24051"
"A31ZMKF1XY6SFF","caus_thomas_fire_v6","3PDJHANYK5HDMA1OM76JY5Z4V3LH6A","8","1","1","1,2,0","0","0","1","1",,"20661","2017-10-17 13:59:24","24052"
"A3J9JCSAZJIRXI","caus_thomas_fire_v6","3YT88D1N08Z5RHFE9QBI4U3CDTO3KV","8","0","4","1,0,2","0","1","1","1",,"11879","2017-10-17 13:59:27","24053"
"A33QI63NVR8CUO","caus_thomas_fire_v6","3EJPLAJKEMHZDV1ISTCQYC39RT2Z6I","8","8","8","0,1,2","0","1","1","0",,"110275","2017-10-17 13:59:29","24054"
"A1HOEA3Y6W3FPZ","caus_thomas_fire_v6","3ERMJ6L4DYTIIOG4WEROWO7W7057M9","8","0","0","2,1,0","0","0","1","1",,"12755","2017-10-17 13:59:35","24055"
"A3R0V7F5LPVVAH","caus_thomas_fire_v6","3OWEPKL089DO06148F6O93WWCQF7N9","3","5","6","2,0,1","0","1","1","1",,"34760","2017-10-17 13:59:37","24056"
"AQ5KOKZQSZU0B","caus_thomas_fire_v6","3LOZAJ85YDEMQZI249C2BE6M3O32X8","0","8","6","2,1,0","0","0","1","0",,"17448","2017-10-17 13:59:42","24057"
"A2TZRIS9XFZ18U
A2TZRIS9XFZ18U","caus_thomas_fire_v6","35DR22AR5DLBBHEL89Q7UOBE9233XK","8","0","8","1,0,2","0","0","1","1",,"22893","2017-10-17 13:59:50","24058"
"A1J21DM2Z753X4","caus_thomas_fire_v6","3BV8HQ2ZZW2YCNTAG1WRHJC0I8WA6T","8","0","4","2,1,0","0","0","1","1",,"18730","2017-10-17 13:59:52","24059"
"A13T1T1VPOCMD3","caus_thomas_fire_v6","3XUHV3NRVKZH361AHOWE6ZL4Z8B5HJ","2","8","8","2,0,1","0","1","1","0",,"18182","2017-10-17 13:59:55","24060"
"A1KRNEYC4GNNCA","caus_thomas_fire_v6","30IQTZXKAK7FUPFOPM8OSQD76QIX0I","6","2","8","1,0,2","0","1","1","1",,"23862","2017-10-17 14:00:03","24061"
"A2YAZATN6OGRDR","caus_thomas_fire_v6","3Z7VU45IPYI4690LMN093GCSJIN1ZN","5","5","2","2,1,0","0","1","1","0",,"27166","2017-10-17 14:00:05","24062"
"A1UZTQPGT1XHYF
","caus_thomas_fire_v6","3Z4AIRP3C6EF1E06L5CO6VWHBIP1XQ","4","7","7","2,1,0","0","1","1","1",,"35088","2017-10-17 14:00:05","24063"
"AJCHSQEDGHIMQ","caus_thomas_fire_v6","3A4TN5196KJ22RAPWYJMK5RERPXCHY","5","0","5","2,1,0","0","1","1","1",,"24863","2017-10-17 14:00:10","24064"
"A3HTLXAPOBCVVO","caus_thomas_fire_v6","32SCWG5HIH55ZRZC5KEO7E1VHUW6P5","0","8","8","1,2,0","0","1","1","0",,"28145","2017-10-17 14:00:10","24065"
"A2ZTXC0WB8DPJP","caus_thomas_fire_v6","3KGTPGBS6XMU9VO7Z41FR77I96M2UG","8","0","8","0,2,1","0","0","1","1",,"27463","2017-10-17 14:00:13","24066"
"A1ZD8RU6YB0VEU","caus_thomas_fire_v6","3LYA37P8IQOAUCJROJQOMD1O1L1KB3","0","7","7","0,2,1","0","1","1","0",,"23206","2017-10-17 14:00:16","24067"
"A18IOD8JQLSIQ2","caus_thomas_fire_v6","38JBBYETQOBNND68DI5YG4ID7WO4EX","0","8","8","1,2,0","0","1","1","0",,"29654","2017-10-17 14:00:16","24068"
"AA4O2W236E3FW","caus_thomas_fire_v6","3K3R2QNK8B459F96KDGU1UFWFCW9UF","4","7","5","1,2,0","0","0","1","1",,"32025","2017-10-17 14:00:18","24069"
"A367GMQ1MK9N0B","caus_thomas_fire_v6","36TFCYNS44BQ5PLKNUF9YICOS7KXHK","6","4","0","0,2,1","0","0","1","1",,"36884","2017-10-17 14:00:20","24070"
"A3S1YTO9FEKQUV","caus_thomas_fire_v6","32VNZTT0A75CWHBDZOPYFBHWMLE4RA","8","8","8","1,2,0","0","1","1","1",,"26970","2017-10-17 14:00:22","24071"
"AZEGZ5ZVM6P5A","caus_thomas_fire_v6","3F6KKYWMNB24HF2EZS9A9V6SY1IDN8","5","5","8","0,1,2","0","1","1","1",,"9014","2017-10-17 14:00:28","24072"
"A30WRV40L5NFYS","caus_thomas_fire_v6","3J88R45B2GZII6J867NE7REFEYUXPP","7","0","3","1,2,0","0","0","1","1",,"14615","2017-10-17 14:00:29","24073"
"A173E26N947Q7A","caus_thomas_fire_v6","3TPWUS5F892KZH5ERX5ML8116DACWY","8","0","8","1,0,2","0","1","1","1",,"12039","2017-10-17 14:00:34","24074"
"A2V4PRG5UBNIX0","caus_thomas_fire_v6","345LHZDEDXTJUDKQ34FKAHCAFKM3US","5","5","1","2,0,1","0","0","1","1",,"23861","2017-10-17 14:00:38","24075"
"A1AUT20SM6AI4Y","caus_thomas_fire_v6","3B837J3LDOXVY2DOPPLGDEX201HSR5","6","0","2","0,2,1","0","0","1","1",,"21334","2017-10-17 14:00:39","24076"
"A1SVQ3U72FDUFY","caus_thomas_fire_v6","3X3OR7WPZZ12CK3267IFABO2IFL8LV","8","0","0","1,2,0","0","0","1","1",,"18419","2017-10-17 14:00:41","24077"
"A1JCKICNOC7DAB","caus_thomas_fire_v6","3MX2NQ3YC9VEPW1PMSE09L9YNYU5XC","8","0","8","1,0,2","0","0","1","1",,"18074","2017-10-17 14:00:45","24078"
"AR4UI9K92BUT3","caus_thomas_fire_v6","3L4PIM1GQTHSUOPXOVD5V0L3HMCRYH","4","4","4","1,2,0","0","1","1","0",,"52966","2017-10-17 14:00:46","24079"
"A3OEFJ2GS3VPVT","caus_thomas_fire_v6","3E337GFOL997TZC51IAIFG9PBTYNGS","8","8","8","1,0,2","0","1","1","0",,"17357","2017-10-17 14:00:48","24080"
"A241PV6A122I5X","caus_thomas_fire_v6","351SEKWQS0IYZXHENRUAWGHSTB8DM8","0","7","7","1,0,2","0","1","1","0",,"9340","2017-10-17 14:00:48","24081"
"A25VHX1PUAHR4T","caus_thomas_fire_v6","3ZAZR5XV01JOTCAJ2KPTKCVJNFDZCA","8","0","0","1,0,2","0","1","1","1",,"47319","2017-10-17 14:00:50","24082"
"AK7QYK3WKTWWZ","caus_thomas_fire_v6","3PM8NZGV8YH3IIKN6K237W4PJUGXQG","5","1","5","2,0,1","0","0","1","1",,"17676","2017-10-17 14:00:59","24083"
"A1R0689JPSQ3OF","caus_thomas_fire_v6","3RJSC4XJ10V6S6VEJGPT07MNDR905C","0","4","7","1,2,0","0","0","1","0",,"19513","2017-10-17 14:01:00","24084"
"AAQREZOK13OV7","caus_thomas_fire_v6","3X4JMASXCMA8HMCNKQG63TMFNNVB0O","0","6","4","1,2,0","0","0","1","0",,"11835","2017-10-17 14:01:02","24085"
"A1QUBLZCONL4QD","caus_thomas_fire_v6","35K3O9HUABEXLT3XXZ1H78F4WMXFEW","8","8","8","0,2,1","0","1","1","1",,"17596","2017-10-17 14:01:02","24086"
"ALOX6TS3BTQ7W","caus_thomas_fire_v6","338JKRMM260E9CDRCKNVEA1QRMCAHU","7","0","7","2,1,0","0","1","1","1",,"24180","2017-10-17 14:01:06","24087"
"A2UKCO1M1MEMZW","caus_thomas_fire_v6","39O5D9O87TTN8J3QHDUKGBQ48KFC3R","6","0","8","1,0,2","0","1","1","1",,"36764","2017-10-17 14:01:12","24088"
"A3C2J2DZDXKV34","caus_thomas_fire_v6","3TXMY6UCAEPFFK9SFO6GTJJFICTQC8","3","5","0","1,0,2","0","0","1","0",,"23911","2017-10-17 14:01:17","24089"
"A2RR04JS69Z5LE
","caus_thomas_fire_v6","3SKEMFQBZ36RSELKL76EVBBNTFGK84","7","7","7","2,0,1","0","1","1","1",,"13807","2017-10-17 14:01:18","24090"
"AOSO1D81K0ET0","caus_thomas_fire_v6","3N4BPTXIO8TPQBSXOA7JR3TCQ68KUK","6","6","3","1,0,2","0","1","1","0",,"24651","2017-10-17 14:01:22","24091"
"A3QN9B9ZS1CWWM","caus_thomas_fire_v6","3G5F9DBFOPYY10GPNFERAXF3CWDVHG","8","1","5","2,0,1","0","0","1","1",,"27652","2017-10-17 14:01:30","24092"
"A1V8MSGK7CVD8B","caus_thomas_fire_v6","3YOH7BII098P3QHXT0HONPVV4DHVKK","1","8","5","0,1,2","0","0","1","0",,"20319","2017-10-17 14:01:32","24093"
"A1PBRKFHSF1OF8","caus_thomas_fire_v6","3D3VGR7TA0GRELS9ZAKF56PQ8LIR3C","5","6","8","2,0,1","0","1","1","1",,"19584","2017-10-17 14:01:43","24094"
"A389LTO1Q8DAKN","caus_thomas_fire_v6","3JWH6J9I9SEB2I4ULWI4E5ISVG6BNZ","0","-1","8","1,0,2","0","0","1","0",,"11124","2017-10-17 14:02:00","24095"
"ADHWRZIW3GIVU","caus_thomas_fire_v6","34V1S5K3GS2K74J5OVIRLO1GCQE96D","8","0","8","0,1,2","0","1","1","1",,"100626","2017-10-17 14:02:02","24096"
"A28QK3JT9YQ1XU","caus_thomas_fire_v6","3DUZQ9U6SMPNR9U5Y9QQEBM5L7UVS1","7","7","8","1,0,2","0","0","1","0",,"13285","2017-10-17 14:02:06","24097"
"AJRY9ALX8069Y","caus_thomas_fire_v6","3KGTPGBS6XMU9VO7Z41FR77I96LU27","7","2","8","0,1,2","0","0","1","1",,"15121","2017-10-17 14:02:13","24098"
"A21P1T8EW4NHOU","caus_thomas_fire_v6","3IHR8NYAM72RK4VYMWL9AGHHL3PP42","7","1","7","1,2,0","0","0","1","1",,"15002","2017-10-17 14:02:17","24099"
"A35P8YSNTQ7OTP","caus_thomas_fire_v6","31QTRG6Q2TE7IB9IB39GQ5LOG4PYPX","0","0","0","2,1,0","0","1","1","1",,"15389","2017-10-17 14:02:24","24100"
"A3NUYAG56BPYBB","caus_thomas_fire_v6","3QRYMNZ7FYIBY4YBLI9PEZOE1N5TN6","8","0","8","1,2,0","0","0","1","1",,"16680","2017-10-17 14:02:29","24101"
"A3M3WWNSQZN6QK","caus_thomas_fire_v6","3TDXMTX3CBVDI5C8SPO4YH0JVG1I65","0","8","4","0,2,1","0","0","1","0",,"33049","2017-10-17 14:02:30","24102"
"AY7WPVKHVNBLG","caus_thomas_fire_v6","3JRJSWSMQHM25HN4D40F6ZQ7TWSE3M","1","6","8","1,2,0","0","0","1","0",,"21016","2017-10-17 14:02:33","24103"
"A2OHGSJXE6X2MT","caus_thomas_fire_v6","39O5D9O87TTN8J3QHDUKGBQ48KF3CI","7","0","5","1,2,0","0","0","1","1",,"81788","2017-10-17 14:02:34","24104"
" AEH6O45O7QKVP","caus_thomas_fire_v6","3SB5N7Y3O35483KY0C8K44DC30NG0A","8","0","4","1,0,2","0","0","1","1",,"25322","2017-10-17 14:02:35","24105"
"A2HTN7HCNBQ8V4","caus_thomas_fire_v6","3EWIJTFFVO86OPO7UHIW41S0QK8E0R","3","5","4","1,2,0","0","0","1","1",,"21896","2017-10-17 14:02:38","24106"
"A3OTWE5F9F6NEK
","caus_thomas_fire_v6","3EJJQNKU9R668TZ8EV9H90Q0RQ0RHJ","8","8","0","2,0,1","0","0","1","0",,"20748","2017-10-17 14:02:48","24107"
"A1F79H8MQ13RI0 ","caus_thomas_fire_v6","3WYP994K17SZ85RDW7A7K5U7LZZY6R","0","8","0","0,1,2","0","1","1","0",,"27551","2017-10-17 14:02:51","24108"
"A33ZB4QX4Y96WN","caus_thomas_fire_v6","3TXWC2NHNZRPU2H2V8LUMTX8UFBS9I","5","4","3","2,1,0","0","1","1","1",,"4701","2017-10-17 14:02:54","24109"
"A3TMQ9HAX6LIEM","caus_thomas_fire_v6","3NQL1CS15R9KNV6EXFIFWXA62SQYVI","0","8","0","2,0,1","0","1","1","0",,"21985","2017-10-17 14:02:55","24110"
"A1DUPOUC9RNU4L","caus_thomas_fire_v6","31EUONYN2V48TH2CRS9HU6C4OIROVX","1","7","8","0,1,2","0","0","1","0",,"28865","2017-10-17 14:03:08","24111"
"A3HSQFNT76K5TF","caus_thomas_fire_v6","3UN61F00HWQUS0FDDT88K3NAMH8R51","8","8","0","2,1,0","0","1","1","1",,"32966","2017-10-17 14:03:10","24112"
"AQIHP9D5DG5J","caus_thomas_fire_v6","39U1BHVTDLS4U0513ZPA5LQ8W6G3T2","7","7","6","1,0,2","0","1","1","0",,"11881","2017-10-17 14:03:13","24113"
"A2DC7EBSBUVUQ","caus_thomas_fire_v6","3H7XDTSHKCSXGTLJTJ15BZMG452GWC","8","1","8","0,2,1","0","1","1","1",,"25454","2017-10-17 14:03:15","24114"
"A12YGHUPJN155L","caus_thomas_fire_v6","3570Y55XZPK15YGJ8KJTWW7WFD2GYB","8","0","8","1,0,2","0","0","1","1",,"20120","2017-10-17 14:03:18","24115"
"A1NSWJKFJIZ06J","caus_thomas_fire_v6","31QTRG6Q2TE7IB9IB39GQ5LOG4OYPW","2","5","6","1,0,2","0","0","1","0",,"12942","2017-10-17 14:03:18","24116"
"A3O2JUIF4DZQJU","caus_thomas_fire_v6","32VNZTT0A75CWHBDZOPYFBHWMLER4X","5","0","8","2,0,1","0","1","1","1",,"74983","2017-10-17 14:03:22","24117"
"AW5O1RK3W60FC","caus_thomas_fire_v6","3WJ1OXY92AHLG1CY9GTP1X8RO3MA8F","0","8","8","1,0,2","0","1","1","0",,"98147","2017-10-17 14:03:28","24118"
"A3L3LUTEQPJN86","caus_thomas_fire_v6","3URFVVM165JKF6RJOBATEIHPUFKZUK","8","0","8","0,2,1","0","1","1","1",,"19186","2017-10-17 14:03:50","24119"
"A1MHKBAGZN1P8K","caus_thomas_fire_v6","3JAOYWH7VI52QPMCBZOTA7JD2L49LM","6","6","6","0,1,2","0","1","1","1",,"22988","2017-10-17 14:03:50","24120"
"A2DA5SD0IQEPBI
","caus_thomas_fire_v6","3483FV8BEEK97KY63M3CB1T26K526F","8","0","8","1,0,2","0","1","1","1",,"14356","2017-10-17 14:03:55","24121"
"A2OXE5D9A7KSGW","caus_thomas_fire_v6","3M0NZ3JDP1Z3UR14NA2L66P9VYSZ53","8","0","4","1,0,2","0","1","1","1",,"21334","2017-10-17 14:03:56","24122"
"A2XKRQ2IM5XS9A","caus_thomas_fire_v6","3QY5DC2MXRLEAP0JNZGMBQ17IARUFS","8","8","8","0,1,2","0","1","1","1",,"26799","2017-10-17 14:03:59","24123"
"A3AW92ZT3WY05A","caus_thomas_fire_v6","33SA9F9TRXVZWFPSNOBHBW14RPOEWU","8","0","8","0,1,2","0","0","1","1",,"23503","2017-10-17 14:04:01","24124"
"A1NJ0J3SCP668A","caus_thomas_fire_v6","3GNCZX450IO6MTBFVXV0NJ3HDDMPAE","0","4","4","0,2,1","0","1","1","0",,"26704","2017-10-17 14:04:01","24125"
"A221L64A30LW7Z","caus_thomas_fire_v6","3MD9PLUKKIF7KG7ARAY70NPVMJSZNT","0","8","8","1,2,0","0","0","1","0",,"16142","2017-10-17 14:04:07","24126"
"A1KTPYX40PRLVW","caus_thomas_fire_v6","374TNBHA8BWSINAXBGO5QABYL0AYQN","8","8","4","2,1,0","0","0","1","1",,"22911","2017-10-17 14:04:07","24127"
"A391XEEZC675S","caus_thomas_fire_v6","3S3AMIZX3U6LQB5NA20WTKCGZX5CDQ","0","8","4","0,1,2","0","1","1","0",,"17724","2017-10-17 14:04:14","24128"
"AUG2YR37BY9BK","caus_thomas_fire_v6","3RANCT1ZVFIOX8O3IXUQS0AM3CZUBA","1","7","6","0,2,1","0","0","1","1",,"33323","2017-10-17 14:04:24","24129"
" A2PNMIDHOYL2KN","caus_thomas_fire_v6","3HYA4D452RK5QDRH4F6G576FZJ82FI","4","4","1","0,2,1","0","0","1","1",,"22840","2017-10-17 14:04:28","24130"
"A2FVBM2LXBFCKP","caus_thomas_fire_v6","3NS0A6KXC491AOQO46LCA3GYL76GZ2","8","8","0","0,2,1","0","1","1","1",,"37138","2017-10-17 14:04:31","24131"
"A3JT22BLG866CK","caus_thomas_fire_v6","3WYP994K17SZ85RDW7A7K5U7LZZ6YZ","8","8","7","2,1,0","0","1","1","0",,"15896","2017-10-17 14:04:35","24132"
"AV182SXSO370E","caus_thomas_fire_v6","3D4CH1LGEAUM4X8B08RDXFE564HG9M","8","2","1","2,1,0","0","0","1","0",,"59464","2017-10-17 14:04:37","24133"
"A2LFT9N17HS9FX","caus_thomas_fire_v6","3IQ1VMJRYTLLU6V8E8Z31T32894A94","5","5","3","1,2,0","0","1","1","1",,"12638","2017-10-17 14:04:39","24134"
"A33B85TN97HQ33","caus_thomas_fire_v6","3A4TN5196KJ22RAPWYJMK5RERPYCHZ","0","6","4","2,0,1","0","1","1","0",,"27960","2017-10-17 14:04:42","24135"
"A2JWAD9JQNA5ON","caus_thomas_fire_v6","304SM51WA358IVWZTSZQDZSYIFESBS","8","8","0","1,2,0","0","0","1","0",,"16829","2017-10-17 14:04:43","24136"
"A3JT9LHWLFHNS8
","caus_thomas_fire_v6","3EQHHY4HQST33A6ZXIEWLZ93K8Y5GK","8","0","8","1,2,0","0","1","1","1",,"17983","2017-10-17 14:04:45","24137"
"A2EABC3X5VMZ95","caus_thomas_fire_v6","3IAS3U3I0FHFDWF1ZDKKMHFUKLG2B0","2","6","8","1,0,2","0","0","1","0",,"17187","2017-10-17 14:04:49","24138"
"A229YGAMHVF77H","caus_thomas_fire_v6","3R8YZBNQ9HJ933EWO7Y5DXR1H12Q7F","6","7","4","0,2,1","0","1","1","1",,"21840","2017-10-17 14:05:10","24139"
"A3EEMZ0K3T47QZ","caus_thomas_fire_v6","3QIYRE09Y3IAPKM2JZPF8T5J94F1N6","8","0","8","2,0,1","0","1","1","1",,"15515","2017-10-17 14:05:14","24140"
"A23WT7XWIML8KH","caus_thomas_fire_v6","39GXDJN2OTF58PFWKBKLXKM49DN8VE","8","8","8","1,2,0","0","0","1","0",,"8724","2017-10-17 14:05:16","24141"
"AMPBSSN039C35","caus_thomas_fire_v6","3LQ8PUHQFLTTFUWPO8F8V8P94UHIH6","8","8","8","2,0,1","0","1","1","1",,"159778","2017-10-17 14:05:17","24142"
"ATUWQRSJAZQMH","caus_thomas_fire_v6","3R2UR8A0IAH0X677R7AZIR9P4TZXO9","7","0","7","1,0,2","0","0","1","1",,"39842","2017-10-17 14:05:24","24143"
"A1N3J21E6L4VVO","caus_thomas_fire_v6","3Q5ZZ9ZEVOGOAV0HEK28TMS5WPM585","6","1","6","0,1,2","0","0","1","1",,"24462","2017-10-17 14:05:24","24144"
"A3G6L97AX9KR7F","caus_thomas_fire_v6","3DUZQ9U6SMPNR9U5Y9QQEBM5L7USVY","0","8","4","0,1,2","0","1","1","0",,"48243","2017-10-17 14:05:29","24145"
"A1CM612SSQU5L","caus_thomas_fire_v6","3YOH7BII098P3QHXT0HONPVV4DIKVA","8","8","8","2,1,0","0","0","1","0",,"18789","2017-10-17 14:05:30","24146"
"A2AVYMFZ8GZPJ4","caus_thomas_fire_v6","3RU7GD8VPOUAMPX9CXHR8JXNZJTSPD","0","8","0","2,1,0","0","0","1","0",,"81149","2017-10-17 14:05:30","24147"
"A2JZP4AZI1RTG4","caus_thomas_fire_v6","3YWRV122CS05VAQWFLAG1YKLV6E8UP","6","0","1","2,0,1","0","0","1","1",,"13361","2017-10-17 14:05:36","24148"
"A1POSVC6FSYWLW","caus_thomas_fire_v6","3Z2R0DQ0JHFDKZRL94MANPLFNIT2E0","3","8","2","2,1,0","0","1","1","0",,"43761","2017-10-17 14:05:37","24149"
"A2SMUTM50TMJHG","caus_thomas_fire_v6","37UQDCYH6XW18BADA6SFJKQ9YTI7VR","8","0","8","2,0,1","0","1","1","1",,"19685","2017-10-17 14:05:40","24150"
"AOB6ZJTDB416G","caus_thomas_fire_v6","3483FV8BEEK97KY63M3CB1T26K562J","5","0","7","0,2,1","0","0","1","1",,"19873","2017-10-17 14:05:45","24151"
"A20K80GWXI69Z7","caus_thomas_fire_v6","3JNQLM5FT4NRQ51DQQ9E0KBZWFUL26","7","0","1","2,0,1","0","1","1","1",,"20475","2017-10-17 14:05:51","24152"
"A2E2UARVOVDR9Y","caus_thomas_fire_v6","3TPWUS5F892KZH5ERX5ML8116D9WCH","0","8","8","1,0,2","0","1","1","0",,"10265","2017-10-17 14:05:53","24153"
"A38W9IO2CDPVNO","caus_thomas_fire_v6","3OVHNO1VE62YY4GX2GK44ID18FQDZP","7","5","8","2,1,0","0","1","1","1",,"45340","2017-10-17 14:05:55","24154"
"A2DFXQ3QVQ9ELH","caus_thomas_fire_v6","3NS0A6KXC491AOQO46LCA3GYL77GZ3","7","1","5","1,2,0","0","0","1","1",,"16087","2017-10-17 14:05:56","24155"
"A1WH32GYQOHIRQ","caus_thomas_fire_v6","3N4BPTXIO8TPQBSXOA7JR3TCQ69KUL","7","0","8","1,2,0","0","1","1","1",,"22044","2017-10-17 14:05:56","24156"
"A1T3ROSW2LC4FG","caus_thomas_fire_v6","3KIBXJ1WD5VUD680SOVASX1N8KLKO8","5","5","8","0,2,1","0","0","1","1",,"29107","2017-10-17 14:05:56","24157"
"AJ1VMW9NT7287","caus_thomas_fire_v6","33C7UALJVLZPMDZYDX0WQWFOK9H81Q","1","5","8","2,0,1","0","1","1","0",,"24992","2017-10-17 14:06:01","24158"
"A1M1TSMJB12177","caus_thomas_fire_v6","3MYYFCXHJ38L7R2ZJDVMG73PKC44GF","6","0","0","0,2,1","0","0","1","1",,"20654","2017-10-17 14:06:04","24159"
"A17V85U8PXS4LJ","caus_thomas_fire_v6","3II4UPYCOJ8PKCF6FK1RDP1X3C6DQW","3","3","6","2,0,1","0","1","1","0",,"56826","2017-10-17 14:06:06","24160"
"A1PE5AT62CBGS4","caus_thomas_fire_v6","33F859I566EJSMIJIYNR9LLW94YBHR","0","6","0","0,2,1","0","0","1","0",,"17265","2017-10-17 14:06:07","24161"
"A2XTKDNUT24SE1","caus_thomas_fire_v6","31JLPPHS2UVOH80T7I3BBBKLXYZO31","5","0","8","0,1,2","0","1","1","1",,"18333","2017-10-17 14:06:10","24162"
"A2WOZPIFGD3RDK","caus_thomas_fire_v6","3XUHV3NRVKZH361AHOWE6ZL4Z8CH5W","4","4","3","1,2,0","0","1","1","0",,"16070","2017-10-17 14:06:12","24163"
"A3Q5M94UVWYTLS
","caus_thomas_fire_v6","35LDD5557A56D3NOF8GX0TCIDK6KMT","2","6","0","2,1,0","0","1","1","0",,"33970","2017-10-17 14:06:21","24164"
"A2ZJAEL03VTZ8","caus_thomas_fire_v6","3LS2AMNW5FRGO96V5TF7OJDW7QBOQ2","0","6","5","0,2,1","0","1","1","0",,"12494","2017-10-17 14:06:30","24165"
"A2G3G60TB7HCJE","caus_thomas_fire_v6","35H6S234SA116HHTL55A98WEQUW65K","8","1","6","0,1,2","0","1","1","1",,"28376","2017-10-17 14:06:35","24166"
"A1YBX7P5PY8LL","caus_thomas_fire_v6","33F859I566EJSMIJIYNR9LLW94XHBW","7","2","6","0,2,1","0","1","1","1",,"78601","2017-10-17 14:06:49","24167"
"A1YX741QQSMKPS","caus_thomas_fire_v6","39K0FND3AHG01QE23H386F9M88CMAG","8","0","3","1,2,0","0","0","1","1",,"24291","2017-10-17 14:06:58","24168"
"A1OSRB1Q63XXWZ
","caus_thomas_fire_v6","3EJPLAJKEMHZDV1ISTCQYC39RT36ZQ","6","7","3","2,1,0","0","1","1","0",,"24505","2017-10-17 14:07:09","24169"
"ATD9IHXHMQURL
","caus_thomas_fire_v6","3R5F3LQFV2LP217MSPYKFCP0CTYOZY","1","6","7","1,2,0","0","1","1","0",,"19695","2017-10-17 14:07:11","24170"
"A18M1IAKPX9XQT","caus_thomas_fire_v6","31QTRG6Q2TE7IB9IB39GQ5LOG4QYPY","0","8","8","0,1,2","0","0","1","0",,"19336","2017-10-17 14:07:28","24171"
"A3I80PHEY97LSK","caus_thomas_fire_v6","3B4YI393V9X7ZHD14ELL3O2YM31SSU","0","6","5","1,2,0","0","0","1","0",,"28422","2017-10-17 14:07:31","24172"
"A3W0V0P5VMKQM4","caus_thomas_fire_v6","3A1COHJ8NJW0QOKCFM3HIJVV1YD8HP","7","7","7","0,2,1","0","1","1","0",,"30890","2017-10-17 14:07:37","24173"
"A2DW36EW5ZH9UB","caus_thomas_fire_v6","32XVDSJFPZYBWNJYQ2AT0XQOWKKM29","8","0","5","1,2,0","0","1","1","1",,"27949","2017-10-17 14:07:39","24174"
"A32F3RIIJB9VER","caus_thomas_fire_v6","33L7PJKHCGZQVXB7FGK6W2YJCS8T8K","8","4","0","1,0,2","0","0","1","1",,"26561","2017-10-17 14:07:40","24175"
"AQK264KI4XVXV","caus_thomas_fire_v6","3N2BF7Y2VQVFBDMG9ND0N1WQL32MHR","0","7","4","2,1,0","0","0","1","0",,"16938","2017-10-17 14:07:45","24176"
"A2NZRP8PKTV4P3","caus_thomas_fire_v6","3E47SOBEYQX2YML92G17KHSTR2ECIT","0","8","6","0,1,2","0","1","1","0",,"14645","2017-10-17 14:07:50","24177"
"A3BGORP58P2F7Q
","caus_thomas_fire_v6","30OG32W0SUC99LGEVNKUFDODYDKEN3","8","8","8","2,1,0","0","1","1","0",,"18724","2017-10-17 14:07:54","24178"
"AA3R1CNZAEH2O","caus_thomas_fire_v6","3HUTX6F6VUOZWQ4A3IP6S1FTRKXO2O","0","8","5","1,0,2","0","0","1","0",,"22183","2017-10-17 14:08:02","24179"
"A13M79DZ3D0ONV","caus_thomas_fire_v6","358010RM5EUVNQG4SJWDDJ3X0MWVX9","7","1","0","2,1,0","0","0","1","1",,"27213","2017-10-17 14:08:07","24180"
" AGBQZMJH45BNU","caus_thomas_fire_v6","3ATPCQ38J8B0V73GMKRJ0AWTHIQYAI","5","4","6","1,2,0","0","1","1","1",,"9146","2017-10-17 14:08:15","24181"
"A10OUK3W46D5SO","caus_thomas_fire_v6","3UNH76FOCS61X8C5JNHO91RTBZFYM2","0","8","7","0,1,2","0","0","1","0",,"29617","2017-10-17 14:08:21","24182"
"A1T3ROSW2LC4FG","caus_thomas_fire_v6","3KIBXJ1WD5VUD680SOVASX1N8KLKO8","5","7","7","2,1,0","0","0","1","0",,"23028","2017-10-17 14:08:22","24183"
"A3UVZZSK15KNPK","caus_thomas_fire_v6","39ZSFO5CA8XUFRMF6P77QOTZBH7JUJ","6","6","6","1,2,0","0","0","1","0",,"13583","2017-10-17 14:08:24","24184"
"A376YLNVO87MLZ
","caus_thomas_fire_v6","32EYX73OY0ABDF5SEUGGSFFQLY3RUL","0","4","4","0,2,1","0","0","1","0",,"27932","2017-10-17 14:08:36","24185"
"A3ELX6YO1E7J11
","caus_thomas_fire_v6","34Q075JO1XE74OUVITNHXH961B610X","7","7","7","0,1,2","0","1","1","0",,"22852","2017-10-17 14:08:38","24186"
"A13WGYF2UCOOMJ","caus_thomas_fire_v6","3K5TEWLKGVCYXVR9TXWCA9GIC9SVI9","8","8","8","1,2,0","0","0","1","0",,"5108","2017-10-17 14:08:42","24187"
"ANPCXN619ACW9","caus_thomas_fire_v6","3EF8EXOTT1WE6UVH41XNFMO20KA1J2","0","4","8","1,0,2","0","1","1","0",,"15307","2017-10-17 14:08:42","24188"
"A36XTKYLP4IRDN","caus_thomas_fire_v6","3PW9OPU9PQLE0YX9XGRVG52LY9Q21I","6","6","7","0,2,1","0","1","1","1",,"24222","2017-10-17 14:08:49","24189"
"A2NAKIXS3DVGAA","caus_thomas_fire_v6","3GDTJDAPVUCMI2LN6JJUAO3RIKB8MX","4","4","4","1,2,0","0","1","1","0",,"6420","2017-10-17 14:08:50","24190"
"AFH0174LHAHMQ","caus_thomas_fire_v6","30IQTZXKAK7FUPFOPM8OSQD76QL0XO","0","8","0","1,2,0","0","0","1","0",,"29454","2017-10-17 14:08:55","24191"
"a2zx7580nvwa61","caus_thomas_fire_v6","31UV0MXWNQDHZ1CUN6EZ6BMJZLS5IE","6","8","7","2,1,0","0","1","1","1",,"7220","2017-10-17 14:08:56","24192"
"ATAHQP6QL09TX","caus_thomas_fire_v6","34Q075JO1XE74OUVITNHXH961B501V","0","8","8","0,1,2","0","1","1","0",,"7858","2017-10-17 14:09:01","24193"
"A11A4KL9D0379R","caus_thomas_fire_v6","3CTOC39K37RSHGAJTHEWGWFF36BJ7I","8","0","8","0,2,1","0","0","1","1",,"35423","2017-10-17 14:09:02","24194"
"A2QR0C2XFOT2KM","caus_thomas_fire_v6","3KJYX6QCM9CUS6BFBFHCMAVIPOHVJL","6","0","4","0,2,1","0","0","1","1",,"99534","2017-10-17 14:09:04","24195"
"A1IWRYUOVXAB0Z","caus_thomas_fire_v6","3L70J4KAZGNXXW8PQO45NPMSZULADN","0","0","0","2,0,1","0","1","1","1",,"16800","2017-10-17 14:09:06","24196"
"A2XVL0RNQMWI17","caus_thomas_fire_v6","35BLDD71I6YKSLGJT1KYA4J88MVZVB","0","8","8","2,1,0","0","0","1","0",,"19624","2017-10-17 14:09:08","24197"
"A3U306W3BPP0J6","caus_thomas_fire_v6","34FNN24DCMA3P1RZRO02SZG7P4P5YJ","5","6","6","0,1,2","0","1","1","0",,"155181","2017-10-17 14:09:10","24198"
"A2868HFLIU4V0C","caus_thomas_fire_v6","3CP1TO84PT2DOGYSY3T7JVF2APV250","7","2","8","1,0,2","0","1","1","1",,"18750","2017-10-17 14:09:17","24199"
"A3JGW4RGO86NPX","caus_thomas_fire_v6","3TS1AR6UQQFCCEONARNB1YNNAZV7F4","0","4","8","0,1,2","0","1","1","0",,"25092","2017-10-17 14:09:29","24200"
"AJK9E6YAWAZVT","caus_thomas_fire_v6","3WETL7AQWT929YUB237C25KUG3V35C","0","8","5","0,1,2","0","1","1","0",,"17212","2017-10-17 14:09:33","24201"
"A2HOJ0B5A8DJVL","caus_thomas_fire_v6","3WJEQKOXA83351SDAVKAMNLJAXIA1X","0","-1","8","0,1,2","0","1","1","0",,"22357","2017-10-17 14:09:34","24202"
"A18J8M1SGIW7XL","caus_thomas_fire_v6","358010RM5EUVNQG4SJWDDJ3X0MXXVC","0","8","8","1,2,0","0","1","1","0",,"20359","2017-10-17 14:09:39","24203"
"AOY7MRZ8IJNAZ","caus_thomas_fire_v6","3EFE17QCRC6I98ZLTK9MZAVWDSKSH9","8","0","8","0,2,1","0","1","1","1",,"33207","2017-10-17 14:09:51","24204"
"A39OBMGPC1917V","caus_thomas_fire_v6","33LKR6A5KEL8KXRMGVBRHSBBYM11T7","0","0","8","1,2,0","0","1","1","0",,"24421","2017-10-17 14:10:01","24205"
"AQL960O0LTRI8","caus_thomas_fire_v6","3ATTHHXXWAPQ1KW4TCXUYUD3SK1XIF","4","8","7","1,2,0","0","1","1","0",,"16982","2017-10-17 14:10:03","24206"
"A36CZ0F88ELFWF","caus_thomas_fire_v6","3U4J9857OECMZXC75P1FI8W2V13B7Q","8","0","6","1,0,2","0","1","1","1",,"20055","2017-10-17 14:10:06","24207"
"A21KXWKFWGBCZ3","caus_thomas_fire_v6","3VE8AYVF8MYGCST6KWFHFYJILJ18FS","3","3","3","1,0,2","0","0","1","1",,"21074","2017-10-17 14:10:10","24208"
"A3AY059NMP3VIZ","caus_thomas_fire_v6","3Z2R0DQ0JHFDKZRL94MANPLFNITE2C","8","0","1","0,1,2","0","0","1","1",,"88058","2017-10-17 14:10:39","24209"
"A1S3VIOXMGN0QN","caus_thomas_fire_v6","3RJSC4XJ10V6S6VEJGPT07MNDRB50J","7","4","8","2,0,1","0","0","1","1",,"66322","2017-10-17 14:10:44","24210"
"A3MXI2O3JZ0TZH","caus_thomas_fire_v6","3MRNMEIQW57ETFZTNFTVW323T6IDL6","8","8","8","0,2,1","0","1","1","0",,"3767","2017-10-17 14:10:46","24211"
"A2QMHQXR8K4VJ2","caus_thomas_fire_v6","30OG32W0SUC99LGEVNKUFDODYDKNEC","3","4","6","1,0,2","0","0","1","0",,"4440","2017-10-17 14:10:54","24212"
"A2C6KUVF0FAIY8","caus_thomas_fire_v6","3RRCEFRB7MDPGAUO3R38FWCS4ZDB46","3","5","6","0,1,2","0","0","1","0",,"32949","2017-10-17 14:10:56","24213"
"A1P14RA5FX3HPD","caus_thomas_fire_v6","3VNL7UK1XFKZACLUNUQC6UF5ZWMFTO","0","6","8","1,2,0","0","0","1","0",,"18172","2017-10-17 14:11:02","24214"
"A3CCF8NBJTJUCB","caus_thomas_fire_v6","34J10VATJFZ6SNVS7Y224MHAVHFIQ4","6","5","4","1,2,0","0","1","1","0",,"17415","2017-10-17 14:11:07","24215"
"AJ3CE3PZMTP6","caus_thomas_fire_v6","31JLPPHS2UVOH80T7I3BBBKLXY03OH","7","7","7","2,1,0","0","1","1","1",,"17028","2017-10-17 14:11:13","24216"
"ADOE9L4WMP55F","caus_thomas_fire_v6","3PXX5PX6LXZ4IZA5CSDZSZYSW99BAH","8","8","0","0,1,2","0","1","1","0",,"31950","2017-10-17 14:11:17","24217"
"A1ST4RTOTHAKMY","caus_thomas_fire_v6","3P529IW9KYMBRZDPELOLK35O5J0LFR","1","5","4","2,1,0","0","0","1","0",,"14660","2017-10-17 14:11:20","24218"
"A3FTNTPAOI5C0G","caus_thomas_fire_v6","3X08E93BHVJXPLH7QOFF1EAEMP8661","8","1","1","2,0,1","0","1","1","1",,"55181","2017-10-17 14:11:21","24219"
"A2WCYILM19VQEW","caus_thomas_fire_v6","3MTMREQS4VJW628G7J9VFDBD6APWAG","4","0","8","2,0,1","0","1","1","1",,"24847","2017-10-17 14:11:28","24220"
"A2H6RIWM50KWA4","caus_thomas_fire_v6","3EA3QWIZ4IWJK3NKO2WX9RSXFOEITI","0","8","8","1,2,0","0","1","1","0",,"17549","2017-10-17 14:11:29","24221"
"A2K9N9ZEJK81XZ","caus_thomas_fire_v6","34Z02EIMISE8D864KC7R3NS1TUX0T5","6","8","8","2,1,0","0","1","1","1",,"20381","2017-10-17 14:11:38","24222"
"A2MFMT03E21ZIT","caus_thomas_fire_v6","3R8YZBNQ9HJ933EWO7Y5DXR1H147QY","5","0","7","0,2,1","0","0","1","1",,"14051","2017-10-17 14:11:39","24223"
"A2DPKKEEW2I6QK","caus_thomas_fire_v6","340UGXU9DY236MM9NELQTC4T64EVUG","2","4","3","2,0,1","0","1","1","0",,"4275","2017-10-17 14:11:44","24224"
"A2E746SZEOVYXS","caus_thomas_fire_v6","3WOKGM4L71HS0G1WOVLS9DMEUMGO07","7","0","8","0,1,2","0","1","1","1",,"26809","2017-10-17 14:11:52","24225"
"A1Q2LJQG0TWBWC","caus_thomas_fire_v6","3M0NZ3JDP1Z3UR14NA2L66P9VYU5ZB","0","4","4","1,2,0","0","1","1","0",,"45216","2017-10-17 14:11:53","24226"
"A2QGXC0QI17CT0","caus_thomas_fire_v6","3VA45EW49NOS75MEKEPSNI5OZEMO1A","1","8","1","0,1,2","0","0","1","0",,"28243","2017-10-17 14:11:55","24227"
"A1TARNH07A75CG","caus_thomas_fire_v6","3X31TUMD7XNK1KJH7M90V11U49F1L4","0","4","8","1,2,0","0","1","1","0",,"14637","2017-10-17 14:11:55","24228"
"AIC05ZT6F4AGF","caus_thomas_fire_v6","37FMASSAYCSJOHT3OG5C9XMB9HEBIL","8","0","0","2,0,1","0","0","1","1",,"41755","2017-10-17 14:11:56","24229"
"A14L7ICRNLCAQY","caus_thomas_fire_v6","3JV9LGBJWTFPBKCH2XAVU59U135GO2","0","8","0","2,0,1","0","1","1","0",,"18846","2017-10-17 14:11:59","24230"
"A1MM8TSLCHVMNK","caus_thomas_fire_v6","3X66WABAJWJ0PVJVJZQ362BJ6C93GU","1","6","8","1,0,2","0","0","1","0",,"14340","2017-10-17 14:12:02","24231"
" A1W36Q5THCHYUZ","caus_thomas_fire_v6","3QHK8ZVMIMJLEI199J2P1DE3QL8BLZ","0","8","8","2,0,1","0","0","1","0",,"26539","2017-10-17 14:12:03","24232"
"A2JEMCGIO2SROI","caus_thomas_fire_v6","33IZTU6J812FVYZ0YOR82WJQ1I2SX1","8","8","8","2,1,0","0","1","1","0",,"4608","2017-10-17 14:12:11","24233"
"ALDQRWYZ8KQ9A","caus_thomas_fire_v6","3RKNTXVS3MZKX0PWXD3CKLSMMHR4A3","0","5","6","0,1,2","0","1","1","0",,"26593","2017-10-17 14:12:16","24234"
"A16MDZ7O8KL9EC","caus_thomas_fire_v6","3WEV0KO0OMT1XSUJ7OQW8PGYL0RDSL","2","5","6","2,1,0","0","1","1","0",,"51325","2017-10-17 14:12:18","24235"
"A3D2DCU3KKUEXF","caus_thomas_fire_v6","39KFRKBFINWPXBXHW3W115GY6ZVYOI","0","8","8","1,0,2","0","0","1","0",,"15372","2017-10-17 14:12:21","24236"
"APX8K8QJ8LV2L","caus_thomas_fire_v6","3R8YZBNQ9HJ933EWO7Y5DXR1H127QW","8","8","8","2,1,0","0","1","1","0",,"22922","2017-10-17 14:12:30","24237"
"A1C1O9YVEWXL6E","caus_thomas_fire_v6","3300DTYQT2IUCIT6BFCBJ7JI3O8EQR","0","8","1","1,0,2","0","1","1","0",,"31068","2017-10-17 14:12:42","24238"
"A3MPRLOQP8D3DL","caus_thomas_fire_v6","3KWTYT08704JP2K089BCYREBGPM5LS","7","0","2","1,2,0","0","0","1","1",,"20786","2017-10-17 14:12:45","24239"
"A1CRD463RZUEXE","caus_thomas_fire_v6","38SKSKU7R1YV1QFFFTU6N0IGLBSLII","6","1","7","0,1,2","0","1","1","1",,"21227","2017-10-17 14:12:49","24240"
"A19JJ2RIRTWJOT","caus_thomas_fire_v6","3QJOXOW4XJS3R3VEJM5U2YZDTNAEM3","0","7","8","0,1,2","0","0","1","0",,"13772","2017-10-17 14:13:09","24241"
"A2KRPK3GQR0GA9
","caus_thomas_fire_v6","3GS6S824SQY3QL25GNE01JVD5HQWN2","8","0","0","2,1,0","0","0","1","1",,"18039","2017-10-17 14:13:11","24242"
"A39O4J8O2IGQYR","caus_thomas_fire_v6","3FE2ERCCZX9VOX5G5G0IOENM2USOPE","8","-1","0","1,2,0","0","0","1","1",,"29670","2017-10-17 14:13:13","24243"
"A3UT2JWMNH5S3V","caus_thomas_fire_v6","3QY5DC2MXRLEAP0JNZGMBQ17IATUFU","0","0","8","0,2,1","0","0","1","1",,"24462","2017-10-17 14:13:14","24244"
"AS2WTWYVRW9BV
","caus_thomas_fire_v6","3NPFYT4IZC5C5TQ93OXRDI0ND77XGL","7","6","6","0,2,1","0","0","1","1",,"11914","2017-10-17 14:13:15","24245"
"A3DKKDV1WEZLYF","caus_thomas_fire_v6","3KGTPGBS6XMU9VO7Z41FR77I96P2UJ","0","4","4","1,0,2","0","0","1","0",,"21726","2017-10-17 14:13:16","24246"
"A2U3723LKNMHAI","caus_thomas_fire_v6","3Z3ZLGNNSIVR2KD9MVVF0GFLCZH3QO","8","0","7","2,1,0","0","0","1","1",,"23110","2017-10-17 14:13:22","24247"
"A1B65EVDS55AME","caus_thomas_fire_v6","37QW5D2ZRGNPGXYSQGFGMX2XA9VS8V","8","5","8","2,0,1","0","0","1","1",,"14203","2017-10-17 14:13:26","24248"
"A108W7J8TZMI8G
","caus_thomas_fire_v6","3DHE4R9OCWCB4DNCFZCYNS6R0Y92GI","8","0","4","2,0,1","0","0","1","1",,"18179","2017-10-17 14:13:32","24249"
"A1VR2CCCVMXKR6","caus_thomas_fire_v6","3TPZPLC3M0D628CUMIGQ0BPB73WP3K","8","0","4","1,2,0","0","1","1","1",,"22338","2017-10-17 14:13:33","24250"
"A1TJHPB2Z8IOEJ","caus_thomas_fire_v6","35LDD5557A56D3NOF8GX0TCIDK7KMU","2","0","6","0,1,2","0","0","1","1",,"40267","2017-10-17 14:13:45","24251"
"ACKVAGNOUSDL0","caus_thomas_fire_v6","3JWH6J9I9SEB2I4ULWI4E5ISVG8NBD","0","8","8","0,2,1","0","0","1","0",,"15221","2017-10-17 14:13:52","24252"
"A2WLGVXAVT2XTR","caus_thomas_fire_v6","35DR22AR5DLBBHEL89Q7UOBE922X3D","4","4","4","1,0,2","0","1","1","1",,"14611","2017-10-17 14:14:06","24253"
"A3L49Y0QOFKHPP","caus_thomas_fire_v6","3NG53N1RLVKS35I0YZBMRSXMNPP8PW","1","7","7","2,1,0","0","1","1","0",,"17721","2017-10-17 14:14:11","24254"
"A3D00DSZUSDSQS","caus_thomas_fire_v6","3ZWFC4W1UU8MUX82J5LH6FENBBPRFN","0","8","8","2,1,0","0","0","1","0",,"27212","2017-10-17 14:14:17","24255"
"A248LF7KKHXZ14","caus_thomas_fire_v6","3M68NM076H8QB4FRICIDC91AICL6RY","0","8","0","2,0,1","0","0","1","0",,"22165","2017-10-17 14:14:17","24256"
"A1HN4550TIXQBZ","caus_thomas_fire_v6","3U8YCDAGXPHVLSEC38DWYIHE9NXQ0G","8","0","0","1,2,0","0","0","1","1",,"26815","2017-10-17 14:14:18","24257"
"A1I4VM94N3EM0W","caus_thomas_fire_v6","33PPUNGG386SZEZ2KHFO97U5NGJRZB","8","0","4","1,2,0","0","0","1","1",,"25746","2017-10-17 14:14:21","24258"
"A6JFRB432NWIX","caus_thomas_fire_v6","3OS4RQUCR9GZEQRDN8ZR609JTPMBFU","8","0","5","1,2,0","0","0","1","1",,"16583","2017-10-17 14:14:22","24259"
"A2TBXASXZIRNNW","caus_thomas_fire_v6","3OONKJ5DKCKTK346MBIHTUIXLQAOBQ","0","8","8","0,1,2","0","1","1","0",,"17624","2017-10-17 14:14:24","24260"
"ABL3H3O3BI8ZD","caus_thomas_fire_v6","3R0T90IZ1SDO2VFECS14Z5FDCPMGC5","7","7","8","1,2,0","0","0","1","1",,"7343","2017-10-17 14:14:33","24261"
" A16184N1RO5OJV
","caus_thomas_fire_v6","3OLF68YTN92UVGMLHUZVBPPDB72AFZ","6","0","8","0,1,2","0","1","1","1",,"28156","2017-10-17 14:14:39","24262"
"ANJ9V1S2RYOE8","caus_thomas_fire_v6","3HL8HNGX452GQXCGPOLVFUET5PK9FJ","8","0","7","0,1,2","0","1","1","1",,"36662","2017-10-17 14:14:50","24263"
"A2A27TLFWKDXUW","caus_thomas_fire_v6","3OVR4I9USPKCKGWDM90YAL7RQZEQ4X","8","0","0","0,2,1","0","0","1","1",,"39275","2017-10-17 14:14:59","24264"
"A25894CV44ZZ0V","caus_thomas_fire_v6","33F859I566EJSMIJIYNR9LLW940BHT","0","8","0","2,1,0","0","0","1","0",,"14065","2017-10-17 14:15:05","24265"
"A2XFO0X6RCS98M","caus_thomas_fire_v6","38BQUHLA9W1P3U83D08Q7ATRXPEMOD","7","1","6","2,1,0","0","0","1","1",,"12655","2017-10-17 14:15:06","24266"
"AEZ64TVDZQOU6","caus_thomas_fire_v6","3TPZPLC3M0D628CUMIGQ0BPB73W3PY","1","5","5","2,1,0","0","0","1","0",,"18755","2017-10-17 14:15:09","24267"
"A1TARNH07A75CG","caus_thomas_fire_v6","3X31TUMD7XNK1KJH7M90V11U49F1L4","4","0","8","0,1,2","0","1","1","1",,"9097","2017-10-17 14:15:11","24268"
"A3P0P0DRSOX52W","caus_thomas_fire_v6","3OS4RQUCR9GZEQRDN8ZR609JTPNBFV","4","4","4","0,1,2","0","0","1","1",,"28825","2017-10-17 14:15:14","24269"
"A2OSXVGQUR6IL6","caus_thomas_fire_v6","36ZN444YTRZ37BICSLAYFHMAGGYOI3","5","5","1","2,1,0","0","0","1","0",,"25308","2017-10-17 14:15:25","24270"
"A11GMTJSTNR0YA","caus_thomas_fire_v6","3R0T90IZ1SDO2VFECS14Z5FDCPNGC6","3","7","2","0,2,1","0","1","1","0",,"12993","2017-10-17 14:15:38","24271"
"AK3H5QRAROFGP","caus_thomas_fire_v6","3TOK3KHVJTJ6IR1G9U61OSW120JO74","8","0","8","0,2,1","0","1","1","1",,"11723","2017-10-17 14:15:38","24272"
"A3L2UB07EZJAMD","caus_thomas_fire_v6","3QJOXOW4XJS3R3VEJM5U2YZDTN8ME9","0","8","8","1,0,2","0","0","1","0",,"18017","2017-10-17 14:15:50","24273"
"A345RMXKPKS5AD","caus_thomas_fire_v6","3OLQQLKKNSQDQVPTGPS2M67WPTHEJ1","5","5","6","1,2,0","0","0","1","1",,"18427","2017-10-17 14:15:50","24274"
"A330JJJZGJL7IG2","caus_thomas_fire_v6","323Q6SJS8IH953UZN09NSBCHO2SHFH","8","0","0","2,0,1","0","1","1","1",,"19948","2017-10-17 14:15:53","24275"
"ALML8V38FDV0","caus_thomas_fire_v6","3I02618YA07Q12PD12CRNKFBKGHUPY","2","0","8","1,2,0","0","0","1","1",,"20590","2017-10-17 14:15:59","24276"
"A36KDWI1CGJFFA","caus_thomas_fire_v6","3PW9OPU9PQLE0YX9XGRVG52LY9Q12H","0","8","4","2,0,1","0","0","1","0",,"26049","2017-10-17 14:16:03","24277"
"A3X6N2OAY5XY8","caus_thomas_fire_v6","3ZDAD0O1T1EGAYCFNOWYC1FC31ITXT","6","0","3","2,0,1","0","0","1","1",,"46810","2017-10-17 14:16:05","24278"
"A25PP2C9TDMBVG","caus_thomas_fire_v6","3RXPCZQMQPC4FS5GWVCKI9WM8SW1G1","8","0","8","0,2,1","0","0","1","1",,"53009","2017-10-17 14:16:12","24279"
"A35RT6VWT56F30","caus_thomas_fire_v6","3A4NIXBJ760HX95608SYFTPX2KDML0","0","8","0","2,0,1","0","1","1","0",,"22977","2017-10-17 14:16:16","24280"
"jamrsmommy@yahoo.com","caus_thomas_fire_v6","3KRVW3HTZNM41M0WKHPZRF3SUELMSE","0","8","4","1,0,2","0","1","1","1",,"13745","2017-10-17 14:16:28","24281"
"A2YTO4EY3MNYAJ","caus_thomas_fire_v6","3J4Q2Z4UTY4OTIFXWF6H5DQIASAWQM","1","7","7","2,1,0","0","0","1","0",,"14770","2017-10-17 14:16:41","24282"
"A2DOBD99DXD0K8","caus_thomas_fire_v6","31N2WW6R9RRUBVN08FKLOHB75XBF39","8","2","4","0,1,2","0","1","1","1",,"22745","2017-10-17 14:16:56","24283"
"A1U5RYB8O1ILWU","caus_thomas_fire_v6","3TESA3PJ31B13RNR0KTDF64M2P3MM2","4","4","5","0,1,2","0","1","1","0",,"64004","2017-10-17 14:16:56","24284"
"A1GKEEI844CEKI
","caus_thomas_fire_v6","3LJ7UR74RHERHJJL6H8H6RCMLOT4NQ","5","5","6","1,2,0","0","0","1","0",,"5533","2017-10-17 14:17:04","24285"
"A1Y508FNU04ZLH","caus_thomas_fire_v6","3A1COHJ8NJW0QOKCFM3HIJVV1YFH80","2","6","4","1,2,0","0","0","1","0",,"30394","2017-10-17 14:17:09","24286"
"A8KX1HFH8NE2Q","caus_thomas_fire_v6","3WR9XG3T63C2EYRYQARSAUQWL9L74F","0","8","1","1,2,0","0","1","1","0",,"21140","2017-10-17 14:17:17","24287"
"AKO37FNQTVIKC","caus_thomas_fire_v6","3NS0A6KXC491AOQO46LCA3GYL79ZGO","8","0","8","0,2,1","0","0","1","1",,"14191","2017-10-17 14:17:19","24288"
"A8HSPSD88CUTS","caus_thomas_fire_v6","3BEFOD78W6ULZ1YLUGTHTCNMGYF4MM","7","6","8","2,1,0","0","1","1","1",,"13038","2017-10-17 14:17:19","24289"
"A2W5Q0IVJUS7Y6","caus_thomas_fire_v6","39N5ACM9HEOSHA1A3RH0ROSX7V89PN","7","1","5","1,0,2","0","0","1","1",,"24904","2017-10-17 14:17:21","24290"
"A2NG2CCBMVEBIA","caus_thomas_fire_v6","3VD82FOHKQPCU8WC0BEC4EOF3BFCOQ","5","5","5","2,0,1","0","0","1","0",,"10355","2017-10-17 14:17:26","24291"
"A3JDWMS5QJHREI","caus_thomas_fire_v6","3LQ8PUHQFLTTFUWPO8F8V8P94ULIHA","3","8","6","1,0,2","0","0","1","0",,"14864","2017-10-17 14:17:29","24292"
"A14QHWM66FV1K6
","caus_thomas_fire_v6","3NQL1CS15R9KNV6EXFIFWXA62STVYI","2","7","4","2,0,1","0","1","1","0",,"36534","2017-10-17 14:17:38","24293"
"A2M2MNP08RZE36","caus_thomas_fire_v6","36W0OB37HWFFAKLZOC3UV3SZ07NHZ6","8","8","0","2,0,1","0","0","1","1",,"38105","2017-10-17 14:17:49","24294"
"ATRRVQWZZ87QA","caus_thomas_fire_v6","3A1PQ49WVHIIFO0RG1U2398NNS9H1G","2","7","5","0,1,2","0","0","1","0",,"27010","2017-10-17 14:17:51","24295"
"A1UW0C6QZOT3E7","caus_thomas_fire_v6","3ATTHHXXWAPQ1KW4TCXUYUD3SK3XIH","7","5","7","0,1,2","0","0","1","1",,"27783","2017-10-17 14:18:00","24296"
"A3T39UXTOMLX7E","caus_thomas_fire_v6","36PW28KO4ZX2P2MPMJFPT74DZ6OAEI","6","4","5","2,1,0","0","1","1","1",,"20366","2017-10-17 14:18:01","24297"
"A159MC0L7J302O","caus_thomas_fire_v6","3WOKGM4L71HS0G1WOVLS9DMEUMI0OL","5","4","4","2,0,1","0","0","1","0",,"9011","2017-10-17 14:18:01","24298"
"A3B094AH9T6G0Y","caus_thomas_fire_v6","3K5TEWLKGVCYXVR9TXWCA9GIC9VVIC","2","4","2","2,1,0","0","0","1","0",,"22349","2017-10-17 14:18:04","24299"
"A6FJIVPC8NIK1","caus_thomas_fire_v6","3OXV7EAXLERYS2UP7MHHUBYUCY836U","0","8","0","0,2,1","0","1","1","1",,"20668","2017-10-17 14:18:22","24300"
"AXPOBOA6RMCV0","caus_thomas_fire_v6","3UN61F00HWQUS0FDDT88K3NAMHCR55","5","1","8","0,2,1","0","1","1","1",,"12362","2017-10-17 14:18:23","24301"
"A1EIVUU0RIGPFT","caus_thomas_fire_v6","3YHH42UU5BGKUVYZB350HWIKZHBL0N","4","4","3","1,0,2","0","0","1","0",,"17753","2017-10-17 14:18:32","24302"
"A3VEB6M2UH63TL","caus_thomas_fire_v6","3U8YCDAGXPHVLSEC38DWYIHE9N00QT","1","8","7","0,1,2","0","1","1","0",,"15083","2017-10-17 14:18:34","24303"
"AD368A1RHHRC3","caus_thomas_fire_v6","3EICBYG644XYTX5FKYM7WI7T4H5JCE","0","8","8","1,2,0","0","1","1","0",,"18758","2017-10-17 14:18:34","24304"
"A3PDHDQZZKCTT5","caus_thomas_fire_v6","32SVAV9L3FAZF46SXZYTAG0G8HYA3R","1","7","7","0,2,1","0","0","1","0",,"12395","2017-10-17 14:18:40","24305"
"A1274B3RL8IZ8H","caus_thomas_fire_v6","3TU5ZICBRD2D3HJFYCQBRXNWSLC8QO","8","0","5","1,2,0","0","1","1","1",,"14940","2017-10-17 14:18:47","24306"
"A1CLS2A8N4D5G","caus_thomas_fire_v6","35USIKEBNRH5W6NZP51W3PW0HFZ6ND","6","0","6","0,1,2","0","0","1","1",,"31241","2017-10-17 14:18:51","24307"
"ALXPXFJ81RYE4

","caus_thomas_fire_v6","3KB8R4ZV1E85SQN8YS59OL9VU4OGB0","6","5","4","0,2,1","0","1","1","0",,"20413","2017-10-17 14:18:51","24308"
"AAJC9VIP5DOP","caus_thomas_fire_v6","3ERMJ6L4DYTIIOG4WEROWO7W7097MD","8","0","6","0,1,2","0","1","1","1",,"20367","2017-10-17 14:18:57","24309"
"A2BQ9UA0LIKZQ3","caus_thomas_fire_v6","3IX2EGZR7BK2ZZUY2VC2LD6F4I8JRK","6","1","7","2,1,0","0","0","1","1",,"20201","2017-10-17 14:18:57","24310"
"A1USR9JCAMDGM3","caus_thomas_fire_v6","3GA6AFUKOOPEPRE6358LR2NKLCK3HR","8","8","0","0,2,1","0","1","1","1",,"27583","2017-10-17 14:19:07","24311"
"A2LF84L3K71GR2","caus_thomas_fire_v6","3BEFOD78W6ULZ1YLUGTHTCNMGYFM44","0","7","8","1,2,0","0","0","1","0",,"17636","2017-10-17 14:19:09","24312"
"A3B9OZQTE4US3T","caus_thomas_fire_v6","3H7Z272LX78NIC2JSOKQWXJS7PPLPW","1","1","2","2,1,0","0","0","1","1",,"18486","2017-10-17 14:19:17","24313"
"A18E19QXO73YM4","caus_thomas_fire_v6","3M81GAB8A0KW5FHM1OALIZDX0RXQB5","1","5","7","0,2,1","0","0","1","0",,"20584","2017-10-17 14:19:23","24314"
"A2GJM9IM6XR7ON
","caus_thomas_fire_v6","3QY7M81QH7NNS0G1B2E8HBFSIVEK7L","4","4","4","2,0,1","0","1","1","1",,"10977","2017-10-17 14:19:31","24315"
"A241OXM83X8OYF","caus_thomas_fire_v6","3YT88D1N08Z5RHFE9QBI4U3CDTQ3KX","8","0","8","2,1,0","0","0","1","1",,"29072","2017-10-17 14:19:32","24316"
"AT2C9OU6PE4T7","caus_thomas_fire_v6","3RXCAC0YIRQMQSP1VGLZXJJUMY18GR","2","3","4","1,0,2","0","0","1","0",,"6267","2017-10-17 14:19:37","24317"
"A19YRUF7K6FY78","caus_thomas_fire_v6","39JEC7537U27KS591N0QZ6INZ4BVCA","0","8","7","0,2,1","0","0","1","0",,"12606","2017-10-17 14:19:58","24318"
"A2TIEZRVFLY4FE","caus_thomas_fire_v6","30OG32W0SUC99LGEVNKUFDODYDMNEE","7","5","7","0,2,1","0","1","1","1",,"139690","2017-10-17 14:20:01","24319"
"A2MKXI4KCRRI7Y","caus_thomas_fire_v6","37Q970SNZE975XE7RV617NFPW3O1SJ","7","0","6","0,1,2","0","0","1","1",,"28002","2017-10-17 14:20:05","24320"
"A1QCJN0HALO0L8","caus_thomas_fire_v6","3YMTUJH0DSHPCWO53DUTFQIEA6FT4G","5","5","4","2,1,0","0","1","1","1",,"31217","2017-10-17 14:20:11","24321"
"A33L61XKPX76DB","caus_thomas_fire_v6","34MAJL3QP4OKDFQBOYO2XDEGG7Y436","8","0","8","2,1,0","0","0","1","1",,"19459","2017-10-17 14:20:14","24322"
"A3L9TOPLJHMF2C","caus_thomas_fire_v6","3MD9PLUKKIF7KG7ARAY70NPVMJWNZL","7","1","4","0,1,2","0","0","1","1",,"33915","2017-10-17 14:20:17","24323"
"A1AZM5DEIZ771E","caus_thomas_fire_v6","35GCEFQ6I5P0GCE09RESR9RPH25Z3H","6","1","-1","0,1,2","0","0","1","1",,"13771","2017-10-17 14:20:18","24324"
"A3V8C77FN4FLUA","caus_thomas_fire_v6","3KKG4CDWKIZ6SHFR57PCOQH2GZD49S","8","0","5","1,2,0","0","1","1","1",,"20177","2017-10-17 14:20:29","24325"
"A3pqugiqqbpr98","caus_thomas_fire_v6","3EG49X351UDA8013RBO51RNYJT56XT","6","7","7","2,0,1","0","0","1","0",,"12661","2017-10-17 14:20:38","24326"
"A3NK3VPYRHZBW8","caus_thomas_fire_v6","3PJ71Z61R43P0II8IP6AQSAZ4F319C","8","0","0","1,2,0","0","0","1","1",,"28036","2017-10-17 14:20:49","24327"
"A1NPQNVXPWACT7","caus_thomas_fire_v6","3VJ40NV2QIOTGPYNMX92TOOJRXCTON","7","6","8","1,0,2","0","0","1","0",,"7443","2017-10-17 14:20:53","24328"
"A1E04M3UI5SX1A","caus_thomas_fire_v6","36W0OB37HWFFAKLZOC3UV3SZ07NZHO","8","7","7","1,2,0","0","0","1","0",,"13777","2017-10-17 14:21:03","24329"
"A2ONILC0LZKG6Y","caus_thomas_fire_v6","369J354OFDBZME6D21O1D5N3G3D6G5","0","7","2","2,1,0","0","0","1","0",,"42118","2017-10-17 14:21:03","24330"
"A299CU7U9QX3E7","caus_thomas_fire_v6","3WR9XG3T63C2EYRYQARSAUQWL9P74J","0","8","0","2,0,1","0","0","1","0",,"14901","2017-10-17 14:21:12","24331"
"A18ZOLS2FGK8H7","caus_thomas_fire_v6","3DY4FPOOA1PBQUUSJKQLO1H9Z5FVRH","8","0","0","2,0,1","0","1","1","1",,"28733","2017-10-17 14:21:13","24332"
"A23H7XNZHF8JQY","caus_thomas_fire_v6","3U5JL4WY5KAWTDXP8NVQ4T3KN244XB","0","7","7","1,2,0","0","0","1","0",,"16053","2017-10-17 14:21:24","24333"
"A2E6YPCJHJOLRD
","caus_thomas_fire_v6","3S06PH7KSR5138VPU5BCCOTPV0I1DT","5","8","4","2,1,0","0","0","1","0",,"15656","2017-10-17 14:21:30","24334"
"A2XMFTY9WB05U6","caus_thomas_fire_v6","3QY7M81QH7NNS0G1B2E8HBFSIVF7K9","5","5","6","0,2,1","0","1","1","0",,"4469","2017-10-17 14:21:39","24335"
"AKG7VBOY97HKA","caus_thomas_fire_v6","3ZSY5X72NXCG0ALVI847T9N13CIOR8","8","1","8","2,0,1","0","0","1","0",,"50976","2017-10-17 14:21:54","24336"
"A1QO3XBQXLYEZW","caus_thomas_fire_v6","3LOZAJ85YDEMQZI249C2BE6M3O7X27","5","6","4","0,2,1","0","1","1","0",,"13794","2017-10-17 14:21:55","24337"
"A3SRQ2H6NK509R","caus_thomas_fire_v6","33UKMF9319L9TH3VIEV1NYU6Q5WTTC","3","8","8","1,2,0","0","1","1","0",,"17409","2017-10-17 14:22:00","24338"
"A3OQ7SWT38JM3C","caus_thomas_fire_v6","3R2PKQ87NW9F78X0F5VLNDX5LGKMIN","0","6","8","1,0,2","0","0","1","0",,"24472","2017-10-17 14:22:14","24339"
"A239D6PX8TDUZ9","caus_thomas_fire_v6","37KGEN7NJ3RD9XHHKGDXDESCCZQPPY","0","8","6","2,1,0","0","0","1","0",,"24935","2017-10-17 14:22:15","24340"
"A2G0HRT8HS9HRZ","caus_thomas_fire_v6","3EO896NRAWWFFE7Q6KHXLS7XS35JTX","8","6","7","2,1,0","0","1","1","1",,"58402","2017-10-17 14:22:19","24341"
"A1D4I1QYL9713I","caus_thomas_fire_v6","36TFCYNS44BQ5PLKNUF9YICOS7PXHP","0","8","4","1,2,0","0","0","1","0",,"21437","2017-10-17 14:22:36","24342"
"A2TGOIW7U237NO","caus_thomas_fire_v6","3YJ6NA41JBHHNMEJP38DGI6030KPJY","1","7","5","1,2,0","0","1","1","0",,"37174","2017-10-17 14:22:43","24343"
"Your Worker ID: A31XNLA9REVGXL
","caus_thomas_fire_v6","3FIUS151DV31J7VJEEXNPW0SAHCGGD","7","6","6","2,0,1","0","1","1","1",,"12693","2017-10-17 14:22:43","24344"
"A2GC0LGLXP6O92","caus_thomas_fire_v6","39ASUFLU6X8ELFUIXT73DFFB0RXXE9","8","0","8","0,2,1","0","1","1","1",,"25588","2017-10-17 14:22:46","24345"
"A1EV66QWCULDE5","caus_thomas_fire_v6","3I02618YA07Q12PD12CRNKFBKGHPUT","0","8","3","0,2,1","0","0","1","0",,"19440","2017-10-17 14:22:50","24346"
"A2ZA3X3DBEMBCD","caus_thomas_fire_v6","3C5W7UE9CFRCX3MVERVMQNKK9TOXMY","0","8","7","1,0,2","0","0","1","0",,"33842","2017-10-17 14:23:02","24347"
"A1N4P4XGQM7NXE","caus_thomas_fire_v6","3XCC1ODXDLCJLMYBXLWBIEI1ID0QRI","0","0","0","0,2,1","0","0","1","0",,"3703","2017-10-17 14:23:04","24348"
"A1HCTAULAAOC8A","caus_thomas_fire_v6","3NG53N1RLVKS35I0YZBMRSXMNPQP8E","0","8","8","1,0,2","0","1","1","0",,"22731","2017-10-17 14:23:06","24349"
"A3JVG39ZC5U3AE","caus_thomas_fire_v6","3G2UL9A02DFGTLVC9YK77SAAH0V673","6","3","6","2,0,1","0","1","1","1",,"9509","2017-10-17 14:23:12","24350"
"AFNGM40QC84Z1","caus_thomas_fire_v6","3UNH76FOCS61X8C5JNHO91RTBZIMYT","8","0","8","0,2,1","0","0","1","1",,"79346","2017-10-17 14:23:15","24351"
"A3UXCS65PQ6HRB","caus_thomas_fire_v6","34FNN24DCMA3P1RZRO02SZG7P4T5YN","7","4","8","1,0,2","0","1","1","1",,"16588","2017-10-17 14:23:16","24352"
"A1835XBNR2UB4X","caus_thomas_fire_v6","3Q5C1WP23M26ZVGWFZTTEC5XIJK15L","0","4","4","2,0,1","0","0","1","0",,"16517","2017-10-17 14:23:19","24353"
"A3V8863KF3SK4A","caus_thomas_fire_v6","3OS4RQUCR9GZEQRDN8ZR609JTPPFB1","8","0","5","1,0,2","0","1","1","1",,"8407","2017-10-17 14:23:21","24354"
"A2T9GR0UCUVDXG","caus_thomas_fire_v6","3MTMREQS4VJW628G7J9VFDBD6AUAWZ","8","0","8","2,1,0","0","0","1","1",,"11076","2017-10-17 14:23:21","24355"
"A3JTMXHPNCUFNX","caus_thomas_fire_v6","3TXWC2NHNZRPU2H2V8LUMTX8UFG9S4","0","8","8","0,2,1","0","0","1","0",,"12824","2017-10-17 14:23:21","24356"
"A2UCO1QAJ36RQ9","caus_thomas_fire_v6","3JW0YLFXRTHTDFBJ8O5NX284YTTWWS","8","8","8","1,2,0","0","1","1","1",,"14912","2017-10-17 14:23:25","24357"
"A30KYQGABO7JER","caus_thomas_fire_v6","3YGXWBAF70I8QFMUHRZ3QGIAMKG4C9","0","4","4","2,0,1","0","1","1","0",,"83546","2017-10-17 14:23:44","24358"
"A3AS4FEB057TRG","caus_thomas_fire_v6","3Z7VU45IPYI4690LMN093GCSJIMZ1K","5","0","5","2,1,0","0","0","1","1",,"17669","2017-10-17 14:23:47","24359"
"A1VAFA14AUEZXG","caus_thomas_fire_v6","3LRKMWOKB5IBVUIH5R0N8ZMXBO62ZA","5","2","7","1,0,2","0","0","1","1",,"22740","2017-10-17 14:23:56","24360"
"ACF8CYOJ1P4GC","caus_thomas_fire_v6","3FFJ6VRIL1PI4UQTQ08NPGQSIDK0IR","0","4","8","0,1,2","0","0","1","0",,"32882","2017-10-17 14:23:57","24361"
"A32S7DRKL0MW0A","caus_thomas_fire_v6","3TEM0PF1Q5Y1WJA7YM7CYJAFQ8C0DP","1","8","8","0,1,2","0","0","1","0",,"20104","2017-10-17 14:23:57","24362"
"A2VP0TNWIJVKA8","caus_thomas_fire_v6","3VNL7UK1XFKZACLUNUQC6UF5ZWPFTR","0","8","6","1,0,2","0","1","1","0",,"15735","2017-10-17 14:24:00","24363"
"A1LHSOH23WKNJI","caus_thomas_fire_v6","308Q0PEVB8E00OE6QWRGIRRLLHEI9L","0","8","8","0,1,2","0","0","1","0",,"12091","2017-10-17 14:24:07","24364"
"AY4E4CDN0J6JL","caus_thomas_fire_v6","35USIKEBNRH5W6NZP51W3PW0HF06NE","0","8","4","0,2,1","0","1","1","0",,"17100","2017-10-17 14:24:08","24365"
"A1H49IS4NJB5I4","caus_thomas_fire_v6","37TD41K0AHARS0O57SVLOJYG00JCSO","5","4","4","1,0,2","0","0","1","0",,"4260","2017-10-17 14:24:10","24366"
"A1YGENVE7OI5JL","caus_thomas_fire_v6","3M23Y66PO282CJF4X1II2J664E36SL","0","5","5","2,0,1","0","0","1","0",,"27895","2017-10-17 14:24:13","24367"
"AZ57C58RDAMJF","caus_thomas_fire_v6","3EKVH9QMEY58STDLD9BQH73UN6WD2M","4","4","5","0,1,2","0","1","1","1",,"17727","2017-10-17 14:24:15","24368"
"A2BVUVKIS50IR8","caus_thomas_fire_v6","34V1S5K3GS2K74J5OVIRLO1GCQJ69F","0","8","8","1,0,2","0","0","1","0",,"12829","2017-10-17 14:24:18","24369"
"A17J1CE7N49Z9D","caus_thomas_fire_v6","30BXRYBRP4YBGPGUDPJNWZYHJ5FHWC","5","5","5","0,2,1","0","1","1","1",,"7841","2017-10-17 14:24:24","24370"
"A2W8ZODKKQ7RYP","caus_thomas_fire_v6","3DPNQGW4LLGJAYDT70M04GQ0QY564J","0","7","7","1,2,0","0","0","1","0",,"30371","2017-10-17 14:24:25","24371"
"A38ECJNH8AQKV4
","caus_thomas_fire_v6","3XIQGXAUMC9TC0F8ALTX75NUE4TX7N","6","3","6","0,1,2","0","1","1","1",,"55578","2017-10-17 14:24:26","24372"
"AOHE56L0POV6","caus_thomas_fire_v6","31N2WW6R9RRUBVN08FKLOHB75XC3FY","5","2","3","2,1,0","0","1","1","1",,"31030","2017-10-17 14:24:26","24373"
"A3UUK65H63DHFX","caus_thomas_fire_v6","3EQHHY4HQST33A6ZXIEWLZ93K835GP","1","8","3","2,1,0","0","0","1","0",,"28435","2017-10-17 14:24:27","24374"
"A1YH4LT7EAYT47","caus_thomas_fire_v6","30BXRYBRP4YBGPGUDPJNWZYHJ5JWHV","8","0","0","1,2,0","0","0","1","1",,"11213","2017-10-17 14:24:30","24375"
"A3SOJWB6AZWZV9
","caus_thomas_fire_v6","3FPRZHYEPY8J7S9Q8UPP63ETTR03VM","4","4","8","1,0,2","0","0","1","1",,"12414","2017-10-17 14:24:35","24376"
"A2CAPUF9ZD9F6G","caus_thomas_fire_v6","3EWIJTFFVO86OPO7UHIW41S0QKDE0W","0","8","8","1,2,0","0","1","1","0",,"11556","2017-10-17 14:24:38","24377"
"A2MPCT1O95PVL9","caus_thomas_fire_v6","32AT8R96GLANEU55TJGLIPKM70PUSF","0","-1","8","0,1,2","0","1","1","0",,"11717","2017-10-17 14:24:40","24378"
"A3FY7A6Z3EVNRX","caus_thomas_fire_v6","3PJ71Z61R43P0II8IP6AQSAZ4F391K","0","8","0","2,1,0","0","1","1","0",,"12555","2017-10-17 14:24:41","24379"
"A4T4577P6JL6R
","caus_thomas_fire_v6","3WYP994K17SZ85RDW7A7K5U7LZ3Y6V","8","5","3","2,1,0","0","1","1","1",,"33762","2017-10-17 14:24:53","24380"
"A1U4W67HW5V0FO","caus_thomas_fire_v6","3R0T90IZ1SDO2VFECS14Z5FDCPPCG4","8","2","8","0,1,2","0","0","1","1",,"28742","2017-10-17 14:24:56","24381"
"AMNRYECHXZY34","caus_thomas_fire_v6","3YDTZAI2WXHO3CCW1UAJ9KZJINP14G","0","6","8","0,2,1","0","0","1","0",,"17199","2017-10-17 14:24:56","24382"
"AVOF14300525D","caus_thomas_fire_v6","3DZQRBDBSLG3F0SMEZKKVGUMUN63SH","5","5","4","0,2,1","0","0","1","0",,"19538","2017-10-17 14:24:57","24383"
"A14ADQ7RUN6TDY","caus_thomas_fire_v6","3IRIK4HM3ALM52Q80FSINE2OIBM6CW","6","3","4","0,1,2","0","0","1","1",,"27264","2017-10-17 14:25:00","24384"
"A2D2XQP00IZFR1","caus_thomas_fire_v6","3RXCAC0YIRQMQSP1VGLZXJJUMY48GU","8","0","8","1,0,2","0","0","1","1",,"21322","2017-10-17 14:25:10","24385"
"A20EU0UH5K3VGE","caus_thomas_fire_v6","39O5D9O87TTN8J3QHDUKGBQ48KK3CN","6","6","8","1,0,2","0","1","1","1",,"29178","2017-10-17 14:25:12","24386"
"A132H53I8VX2OC","caus_thomas_fire_v6","36U2A8VAG1067KC2YB48UOZPMUOKYN","0","8","4","1,0,2","0","0","1","0",,"27634","2017-10-17 14:25:21","24387"
"AV0NB9Q2CBS88","caus_thomas_fire_v6","37WLF8U1WPR4O02WSS9GBXFWNKV6K9","8","0","8","1,2,0","0","1","1","1",,"22985","2017-10-17 14:25:22","24388"
"A4J7IJ84V1PJL","caus_thomas_fire_v6","3LS2AMNW5FRGO96V5TF7OJDW7QGOQ7","8","0","8","1,2,0","0","0","1","1",,"17159","2017-10-17 14:25:24","24389"
"A1UUNYHX3M8O3O","caus_thomas_fire_v6","3NG53N1RLVKS35I0YZBMRSXMNPQP8E","8","8","7","0,1,2","0","1","1","1",,"11695","2017-10-17 14:25:24","24390"
"ABSTVXSZIJGN5","caus_thomas_fire_v6","37QW5D2ZRGNPGXYSQGFGMX2XA9Y8SE","0","0","0","2,1,0","0","1","1","1",,"5862","2017-10-17 14:25:33","24391"
"A1ND4NNS6YX1SD","caus_thomas_fire_v6","378XPAWRUCEE57OBI25GEM25RZWIA0","0","8","0","2,0,1","0","0","1","0",,"15191","2017-10-17 14:25:34","24392"
"A3UUTFA63Y9TPX","caus_thomas_fire_v6","31Q0U3WYDPGLMZUF3S8QCWJT9PF170","0","0","0","1,0,2","0","1","1","1",,"6095","2017-10-17 14:25:35","24393"
"A2NC26KLXJFSSV","caus_thomas_fire_v6","3G5F9DBFOPYY10GPNFERAXF3CWHHV6","4","4","4","0,2,1","0","0","1","1",,"57557","2017-10-17 14:25:36","24394"
"A39PKC5DMX5FJN","caus_thomas_fire_v6","33ISQZVXPPNBLJZ9A65L9EUYEXXCCU","0","6","6","0,1,2","0","1","1","0",,"21896","2017-10-17 14:25:39","24395"
"A26RO8GGTQAXGG","caus_thomas_fire_v6","36WLNQG78ZB78CRHSXFLOIOJHOAEBI","2","6","8","0,2,1","0","0","1","0",,"12477","2017-10-17 14:25:55","24396"
"APGUE1GWCW0MX","caus_thomas_fire_v6","3KYQYYSHYV8MZ02Q079NOK6XOBSDOS","4","4","8","1,0,2","0","0","1","1",,"33830","2017-10-17 14:26:16","24397"
"A2E3TO92MCQ9XU","caus_thomas_fire_v6","3M23Y66PO282CJF4X1II2J664E86SQ","0","4","4","2,0,1","0","0","1","0",,"20949","2017-10-17 14:26:23","24398"
"A224IWPV29ZPY4","caus_thomas_fire_v6","3R3YRB5GRF4JEYJBCJUUXPQGLUJAU0","0","7","4","0,2,1","0","1","1","0",,"21427","2017-10-17 14:26:26","24399"
"AMNMG3DCCC166","caus_thomas_fire_v6","3SKEMFQBZ36RSELKL76EVBBNTFL8KX","6","6","4","2,0,1","0","1","1","1",,"20359","2017-10-17 14:26:28","24400"
"A2KHLQ2YFZRI67","caus_thomas_fire_v6","3VHP9MDGRNLIOVJJ18VMHKF1BAPFC8","7","1","1","2,0,1","0","1","1","1",,"30532","2017-10-17 14:26:35","24401"
"A1QSUIQRZFQ85E","caus_thomas_fire_v6","3Q8GYXHFEP3QMYQUVWIDV8OOMGBC5M","1","8","8","2,1,0","0","0","1","0",,"25525","2017-10-17 14:26:42","24402"
"AC7PXTENVPO8L
","caus_thomas_fire_v6","3S4AW7T80BJ1TJG0U4S2TZ8XGTUL46","1","8","8","1,2,0","0","0","1","0",,"25521","2017-10-17 14:26:54","24403"
"AK467M5VTG7N4","caus_thomas_fire_v6","3X87C8JFV6CVM1YOCAWG8ONX4FJSQ8","8","0","8","1,0,2","0","0","1","1",,"31129","2017-10-17 14:27:01","24404"
"AE05QWB4IQA44","caus_thomas_fire_v6","37Q970SNZE975XE7RV617NFPW3T1SO","8","0","8","1,2,0","0","0","1","1",,"17895","2017-10-17 14:27:11","24405"
"AVOF14300525D","caus_thomas_fire_v6","3DZQRBDBSLG3F0SMEZKKVGUMUN63SH","6","6","2","0,1,2","0","1","1","1",,"11852","2017-10-17 14:27:12","24406"
"A2V2I8HXL9EHQ1","caus_thomas_fire_v6","3K9FOBBF2HKNFRQ6C97YS8EX7APNL3","6","2","7","1,0,2","0","1","1","1",,"14588","2017-10-17 14:27:12","24407"
"A3VIGT44T83M5S","caus_thomas_fire_v6","32UTUBMZ7GXOAND3NN4VOMC5HJDVB5","8","0","8","1,0,2","0","0","1","1",,"29780","2017-10-17 14:27:32","24408"
"A38TZK07ON180S","caus_thomas_fire_v6","3XXU1SWE8MW3YC7VECGA8I2955G0AO","2","8","8","2,1,0","0","0","1","0",,"29519","2017-10-17 14:28:31","24409"
"A21EPR8KW0GWX2","caus_thomas_fire_v6","3UXUOQ9OKEYHGN7FZB1JNXCWDJNA7Z","5","5","5","2,1,0","0","1","1","0",,"19118","2017-10-17 14:28:45","24410"
"A2UVD05SNXJBTF","caus_thomas_fire_v6","37TD41K0AHARS0O57SVLOJYG00LCSQ","7","7","7","0,1,2","0","1","1","1",,"14657","2017-10-17 14:28:50","24411"
"A29U4ZQRLMIB61","caus_thomas_fire_v6","3OVHNO1VE62YY4GX2GK44ID18FWZDH","4","4","7","2,0,1","0","1","1","0",,"19418","2017-10-17 14:28:53","24412"
"AS6RFMS6SX06X","caus_thomas_fire_v6","3HFNH7HEMHFSWWPXHA2ZJA4UG4RGQE","8","0","8","2,1,0","0","1","1","1",,"24583","2017-10-17 14:28:53","24413"
"A3I9743KVD971V","caus_thomas_fire_v6","39GAF6DQWR1NXPVBLQB6IAZWV7H1VN","8","8","1","2,0,1","0","0","1","0",,"19128","2017-10-17 14:28:53","24414"
"A2SHX1MACQJ5K5","caus_thomas_fire_v6","3B837J3LDOXVY2DOPPLGDEX201NSRB","6","0","8","0,2,1","0","0","1","1",,"17060","2017-10-17 14:29:00","24415"
"A3BBAD8UB2C9HO","caus_thomas_fire_v6","33L7PJKHCGZQVXB7FGK6W2YJCSD8T4","0","8","5","2,0,1","0","0","1","0",,"22110","2017-10-17 14:29:01","24416"
"A1Q6IR9E7MW3BM
","caus_thomas_fire_v6","3YMTUJH0DSHPCWO53DUTFQIEA6I4TU","0","8","3","0,1,2","0","0","1","0",,"20012","2017-10-17 14:29:05","24417"
"APQM2KTVCKDDV
Hello, Amy Motika  |  Sign Out
APQM2KTVCKDDV
Hello, Amy Motika  |  Sign Out
APQM2KTVCK","caus_thomas_fire_v6","3LUY3GC63Z1O3RDHOUJGDS1RC5M7PB","1","6","4","0,2,1","0","1","1","0",,"29026","2017-10-17 14:29:08","24418"
"AI7FHEGINMC0L","caus_thomas_fire_v6","3QILPRALQ5WS0K6NIKYUN3SRNARN8I","5","5","0","0,2,1","0","0","1","1",,"21030","2017-10-17 14:29:09","24419"
"A2UF2FRGVW4T89","caus_thomas_fire_v6","3RKNTXVS3MZKX0PWXD3CKLSMMHX4A9","7","7","5","0,2,1","0","1","1","1",,"16455","2017-10-17 14:29:21","24420"
"A8LN94NNLE8MU","caus_thomas_fire_v6","37U1UTWH9VNDFIYFBRFBWNX1O79R83","8","0","4","0,1,2","0","1","1","1",,"187830","2017-10-17 14:29:31","24421"
"A19BEDJTKWEDDM","caus_thomas_fire_v6","3PH3VY7DJLYX7AGOJBPUW62MFV2ZWQ","0","8","8","1,0,2","0","1","1","0",,"11478","2017-10-17 14:29:34","24422"
"A1IMU6GWPN1Y9D","caus_thomas_fire_v6","3R08VXYT7CWEN0AI0GXB5M9N52PW7V","8","8","0","1,2,0","0","1","1","1",,"29135","2017-10-17 14:29:42","24423"
"A1DJ9LK9D3ZV1V","caus_thomas_fire_v6","3QAPZX2QN4EET9CR1XNV20JBTHP20K","8","0","8","0,2,1","0","0","1","1",,"28587","2017-10-17 14:30:03","24424"
"A1XLKP50VFNDGN","caus_thomas_fire_v6","3WMINLGALB4NS42BQS9U3J4AEUEACS","0","7","4","1,2,0","0","0","1","0",,"36422","2017-10-17 14:30:09","24425"
"A3N8JP3QR3VPE8","caus_thomas_fire_v6","3YW4XOSQKQMNKA6BG011MOXDH0EU1X","5","5","6","1,2,0","0","0","1","0",,"15986","2017-10-17 14:30:10","24426"
"AK9JRJJOTQ4E8","caus_thomas_fire_v6","3M81GAB8A0KW5FHM1OALIZDX0RZQB7","8","8","5","1,2,0","0","1","1","1",,"14644","2017-10-17 14:30:12","24427"
"A3D3EB91I4WAXE","caus_thomas_fire_v6","33UKMF9319L9TH3VIEV1NYU6Q5ZTTF","8","0","6","2,1,0","0","0","1","1",,"18269","2017-10-17 14:30:18","24428"
"A49HPQ9P5AHU4","caus_thomas_fire_v6","37Q970SNZE975XE7RV617NFPW4V1SS","8","0","8","0,2,1","0","0","1","1",,"8592","2017-10-17 14:30:23","24429"
"AELOYBHVZFDW9","caus_thomas_fire_v6","3M0NZ3JDP1Z3UR14NA2L66P9VYRZ52","8","0","4","0,1,2","0","1","1","1",,"29484","2017-10-17 14:30:43","24430"
"A1OY40VC86UZZ5","caus_thomas_fire_v6","3X3OR7WPZZ12CK3267IFABO2IFQL8D","2","8","7","2,0,1","0","0","1","0",,"15972","2017-10-17 14:30:44","24431"
"A3TXXGNBHYC7GF","caus_thomas_fire_v6","333U7HK6I9G8YPBTKUHIGOPBPHKDJB","8","8","8","2,1,0","0","1","1","0",,"28436","2017-10-17 14:30:57","24432"
"A364KJDYEBAWC9","caus_thomas_fire_v6","3HWRJOOET536PY8J3J1GE7YJLCYSEZ","8","0","8","0,1,2","0","1","1","1",,"11290","2017-10-17 14:31:02","24433"
"AK8UFPN8QOSK5","caus_thomas_fire_v6","3EG49X351UDA8013RBO51RNYJTAX6P","8","0","7","0,1,2","0","1","1","1",,"56141","2017-10-17 14:31:10","24434"
"A1J53Y1SD6R5XW","caus_thomas_fire_v6","3OSWBBLG1EY9T9GI1YWJ7XXQ0FZXDJ","0","7","4","2,1,0","0","0","1","0",,"11575","2017-10-17 14:31:15","24435"
"A1NDDFSSUAMUTR","caus_thomas_fire_v6","3QL2OFSM96JUCNW0ZWEZPPOAD1ANCM","0","8","8","1,2,0","0","1","1","0",,"22768","2017-10-17 14:31:29","24436"
"AFIFVNL3CREJN","caus_thomas_fire_v6","3PW9OPU9PQLE0YX9XGRVG52LYAW12P","0","7","8","2,1,0","0","0","1","0",,"12313","2017-10-17 14:31:34","24437"
"A1ZN6V0PU8VVAH","caus_thomas_fire_v6","3WJ1OXY92AHLG1CY9GTP1X8RO4UA8P","6","6","7","1,0,2","0","1","1","0",,"17352","2017-10-17 14:31:34","24438"
"AO573U525Q21O","caus_thomas_fire_v6","3WEV0KO0OMT1XSUJ7OQW8PGYL0XSD6","2","0","8","0,2,1","0","1","1","1",,"31343","2017-10-17 14:31:37","24439"
"A3KT7FHYY6PF2P","caus_thomas_fire_v6","3TGOYF991XN3T7X9IOBLXQ2ASXAUUV","3","4","3","1,2,0","0","1","1","0",,"6953","2017-10-17 14:31:54","24440"
"A24W1M0GILRCJ3","caus_thomas_fire_v6","392CY0QWG1SZ3I8U91VP1JG5ZQ34IG","7","1","7","0,1,2","0","1","1","1",,"22430","2017-10-17 14:31:57","24441"
"A2NEP51CWP5VQT","caus_thomas_fire_v6","3X08E93BHVJXPLH7QOFF1EAEMPB664","0","8","8","2,0,1","0","1","1","0",,"20609","2017-10-17 14:32:11","24442"
"A2D3TXA2QAVPXW","caus_thomas_fire_v6","37TRT2X24QSFJSD96YQCLY1BMW8BJ2","1","8","1","0,2,1","0","1","1","0",,"20716","2017-10-17 14:32:16","24443"
"A3RXWX2HX0GU6T","caus_thomas_fire_v6","3YDGXNSEOZV6ECWH0FJYOUMRWTW848","6","1","6","2,0,1","0","0","1","1",,"54955","2017-10-17 14:32:18","24444"
"A3AV8KOZW78IEW","caus_thomas_fire_v6","3V5Q80FXIXSAA1BOKK5E4YHIWUA32J","0","8","8","1,2,0","0","1","1","0",,"23612","2017-10-17 14:32:33","24445"
"A2ZBKJCZPT4Z0V","caus_thomas_fire_v6","3NL0RFNU0FOQ9DYI94G1EZVIRUSK47","0","8","8","1,0,2","0","1","1","0",,"17752","2017-10-17 14:32:40","24446"
"AF9NG1PF59D1U","caus_thomas_fire_v6","3FTF2T8WLRJI1JYBFDVVJI0T0TF9WO","8","0","8","2,0,1","0","0","1","1",,"13950","2017-10-17 14:33:03","24447"
"A1L2N1X8U8Z3W7","caus_thomas_fire_v6","31IBVUNM9S0EN4PJSPQR7C3QWI8VFS","1","8","8","0,1,2","0","0","1","0",,"14230","2017-10-17 14:33:07","24448"
"A12702RT8H45H8","caus_thomas_fire_v6","3CFJTT4SXTRWM5QDBZTW4V0FQSTI7E","0","8","8","0,2,1","0","1","1","0",,"12145","2017-10-17 14:33:10","24449"
"AYLJCFV3ZPX85","caus_thomas_fire_v6","33IZTU6J812FVYZ0YOR82WJQ1JASXB","0","8","1","0,2,1","0","1","1","0",,"21019","2017-10-17 14:33:23","24450"
"A3A6PPZ2EJTW6L","caus_thomas_fire_v6","3MTMREQS4VJW628G7J9VFDBD6BXWAQ","2","2","8","1,2,0","0","0","1","0",,"13611","2017-10-17 14:33:25","24451"
"A1R93MQYAFEVX1","caus_thomas_fire_v6","3VD82FOHKQPCU8WC0BEC4EOF3CJCOW","8","0","7","1,2,0","0","1","1","1",,"26822","2017-10-17 14:33:28","24452"
"A3A8P4UR9A0DWQ","caus_thomas_fire_v6","3BDCF01OGXVHRQUKJBG99OC4BUNYLY","8","8","8","0,2,1","0","0","1","0",,"16071","2017-10-17 14:33:43","24453"
"A1KL6VGWS7GCFB","caus_thomas_fire_v6","3C5W7UE9CFRCX3MVERVMQNKK9USXM4","7","7","6","2,1,0","0","1","1","0",,"5231","2017-10-17 14:33:45","24454"
" A270Q1X6J1JTKK","caus_thomas_fire_v6","3TR2532VIPV9DGWEA794AIFJ8VXJ6P","0","8","0","2,0,1","0","1","1","0",,"41295","2017-10-17 14:33:54","24455"
"A3R457FAWQXZN3","caus_thomas_fire_v6","33TIN5LC04BMQOTBUEDJ4FL9B1FY9C","8","1","8","1,2,0","0","0","1","1",,"10807","2017-10-17 14:33:57","24456"
"A1SHLCA57M79E6","caus_thomas_fire_v6","3E1QT0TDFPA0MJVWL4L2IVWA1C08IS","0","6","8","0,2,1","0","1","1","0",,"17331","2017-10-17 14:34:31","24457"
"A244X2KYRPNOEO","caus_thomas_fire_v6","3ZY8KE4ISJ4BETFS651LJB743KHVQM","6","3","1","2,1,0","0","0","1","1",,"17226","2017-10-17 14:34:41","24458"
"AY7118XTQ3FDG","caus_thomas_fire_v6","3GFK2QRXX9IZ0WWZCNIE72VREXX5WU","3","6","2","2,1,0","0","1","1","0",,"11109","2017-10-17 14:34:42","24459"
"AP4FDDWBJW470","caus_thomas_fire_v6","3P4RDNWND57P60RFC8IT7L5OHNUJIN","8","8","8","1,0,2","0","1","1","1",,"15689","2017-10-17 14:34:50","24460"
"A2UGM73EHLK6XI","caus_thomas_fire_v6","3ERMJ6L4DYTIIOG4WEROWO7W71D7MJ","8","0","8","2,1,0","0","0","1","1",,"31817","2017-10-17 14:35:04","24461"
"A2PZG5F8RIESH9","caus_thomas_fire_v6","3P1L2B7AD1Q5XCQIDO7B7XE2XKTOLI","3","3","3","1,0,2","0","1","1","0",,"9597","2017-10-17 14:35:11","24462"
"A1EOOTAGDRW618","caus_thomas_fire_v6","339ANSOTR53KHKXXUTI58051WCUIKL","6","6","6","2,1,0","0","1","1","0",,"27801","2017-10-17 14:35:16","24463"
"A3GXC3VG37CQ3G","caus_thomas_fire_v6","3TMSXRD2X610CEVGB0G24CIA2HRW12","2","0","5","0,2,1","0","1","1","1",,"21932","2017-10-17 14:35:24","24464"
"AXP9EUIBIXSI4","caus_thomas_fire_v6","37W3JXSD669X2K6JNPNBIZTK920WY0","0","4","4","0,1,2","0","0","1","0",,"50187","2017-10-17 14:35:36","24465"
"A1E9ZDTKEVRELR","caus_thomas_fire_v6","3Y9N9SS8LYCXDB94H9PV0H8MTL03DT","8","8","8","0,2,1","0","0","1","1",,"32400","2017-10-17 14:35:43","24466"
"A3EPDU2O2JMR50","caus_thomas_fire_v6","3IOEN3P9S7K2IZGAKI3Y6IJXEFZ61C","0","8","6","2,0,1","0","0","1","0",,"18734","2017-10-17 14:35:49","24467"
"acdc6staalwve","caus_thomas_fire_v6","3570Y55XZPK15YGJ8KJTWW7WFEBYG4","8","0","8","1,2,0","0","0","1","1",,"17375","2017-10-17 14:36:00","24468"
"A1SOS8EIJCSEKH","caus_thomas_fire_v6","3ZR9AIQJUBAOWNRE5B6JVFG9DWN04I","8","0","8","0,1,2","0","1","1","1",,"41216","2017-10-17 14:36:02","24469"
"A1UUXS11BBL23H","caus_thomas_fire_v6","3YT88D1N08Z5RHFE9QBI4U3CDUX3K6","8","0","8","2,1,0","0","1","1","1",,"40547","2017-10-17 14:36:06","24470"
"A2LL81ERU0Y7E6","caus_thomas_fire_v6","3C5W7UE9CFRCX3MVERVMQNKK9USXM4","8","0","8","0,1,2","0","0","1","1",,"15631","2017-10-17 14:36:21","24471"
"A1NLNWNKB8XI8E","caus_thomas_fire_v6","3RXCAC0YIRQMQSP1VGLZXJJUMZ98G1","8","8","8","0,2,1","0","1","1","1",,"21460","2017-10-17 14:36:40","24472"
"A1SG4QNSJCKJVM","caus_thomas_fire_v6","3R9WASFE2ZHVWOUTTMFUSIGMKTFZFX","8","0","4","0,1,2","0","1","1","1",,"33749","2017-10-17 14:36:45","24473"
"AXRHEJ3POWHEQ","caus_thomas_fire_v6","35K3O9HUABEXLT3XXZ1H78F4WN6EF6","0","8","0","1,0,2","0","0","1","0",,"38999","2017-10-17 14:36:45","24474"
"A2KBZ75HMJ7KVX","caus_thomas_fire_v6","31T4R4OBOSH5924DJPXATS2KDM7C72","8","0","6","1,2,0","0","1","1","1",,"24157","2017-10-17 14:36:46","24475"
"A1V008GUJ9V9VF","caus_thomas_fire_v6","3DPNQGW4LLGJAYDT70M04GQ0QZA46O","8","1","7","0,2,1","0","1","1","1",,"15548","2017-10-17 14:36:46","24476"
"A3T7N805PVNEXN","caus_thomas_fire_v6","3CPLWGV3MO0SEPPXNC48NZN27G89NS","5","1","4","0,2,1","0","0","1","1",,"11167","2017-10-17 14:36:55","24477"
"ARL1RARTYFMKH","caus_thomas_fire_v6","34YB12FSQYP1BHR5PHVI21KP64YMG3","8","0","8","1,2,0","0","1","1","1",,"14334","2017-10-17 14:37:03","24478"
"A27PVIL93ZMY46","caus_thomas_fire_v6","3SKRO2GZ71S9HE1ZMMXZG1OFFAKK1W","7","0","8","1,2,0","0","1","1","0",,"23342","2017-10-17 14:37:05","24479"
"A2YJ65T8Q93E6V","caus_thomas_fire_v6","3M1CVSFP606RM5CUVAAPNOTRIAIAQ2","8","1","6","1,2,0","0","1","1","1",,"20209","2017-10-17 14:37:12","24480"
"A300RDXQAYZ6VR","caus_thomas_fire_v6","30H4UDGLT2J7OUK4S0L5WAYH7UAMPU","8","0","6","1,0,2","0","0","1","1",,"15770","2017-10-17 14:37:16","24481"
"A1HFWZMIPQU603
","caus_thomas_fire_v6","30BXRYBRP4YBGPGUDPJNWZYHJ6PWH3","8","0","0","2,1,0","0","0","1","1",,"19217","2017-10-17 14:37:19","24482"
"A2N5Y21ZYXCWTX","caus_thomas_fire_v6","3ZGVPD4G6TI5FTCUO6KJ9MVNB2OZT6","6","5","4","1,0,2","0","1","1","1",,"7051","2017-10-17 14:37:29","24483"
"AEWPAZBYA7XE","caus_thomas_fire_v6","3ZAK8W07I4FNDLLTKHX18JE3C9CU00","1","6","6","2,1,0","0","0","1","1",,"15462","2017-10-17 14:37:32","24484"
"A16RCHXFKW7KWW","caus_thomas_fire_v6","3DBQWDE4Y6Z9D2NLKMRRBJI0LLT5N3","8","0","8","1,0,2","0","1","1","1",,"23819","2017-10-17 14:37:44","24485"
"A1RPQXFV02P72A
A1RPQXFV02P72A
A1RPQXFV02P72A
A1RPQXFV02P72A","caus_thomas_fire_v6","35GCEFQ6I5P0GCE09RESR9RPH3B3ZT","0","7","6","2,1,0","0","0","1","0",,"21727","2017-10-17 14:37:49","24486"
"A271U2W2KVE2UL","caus_thomas_fire_v6","3NGI5ARFTT6AS5YFZE27CIAE9KPP11","8","8","8","2,1,0","0","1","1","0",,"44860","2017-10-17 14:37:50","24487"
"A16G6PPH1INQL8","caus_thomas_fire_v6","336YQZE83VF3VK2L8LCRY4T0GUF5MX","0","8","7","0,2,1","0","1","1","0",,"23050","2017-10-17 14:37:51","24488"
"ADHRGJ9YF7V7N","caus_thomas_fire_v6","3VE8AYVF8MYGCST6KWFHFYJILK98F2","8","0","0","2,0,1","0","1","1","1",,"42758","2017-10-17 14:37:56","24489"
"A21H2UDDHN8ZF","caus_thomas_fire_v6","3I2PTA7R3TVXYILG71NEH2WNNL7QKQ","8","0","0","0,2,1","0","0","1","1",,"13782","2017-10-17 14:37:57","24490"
"AGDJB8B8CDZ71","caus_thomas_fire_v6","3KXIR214I4HVSXUSKYAXE39OAU7244","0","4","0","2,1,0","0","0","1","0",,"25745","2017-10-17 14:38:01","24491"
"A2M6URTK6WO6XJ
","caus_thomas_fire_v6","3WRFBPLXRAP6ZN0H633YWMKG7P13NA","0","8","8","2,0,1","0","1","1","0",,"21998","2017-10-17 14:38:04","24492"
"A29RCGY1GBMU18","caus_thomas_fire_v6","3LRKMWOKB5IBVUIH5R0N8ZMXBPC2ZI","1","8","7","0,2,1","0","0","1","0",,"18347","2017-10-17 14:38:06","24493"
"A2JUELKWP5O5FB","caus_thomas_fire_v6","3483FV8BEEK97KY63M3CB1T26LE62U","4","8","7","0,1,2","0","0","1","0",,"31777","2017-10-17 14:38:08","24494"
"A4JS2C4BV53LO
","caus_thomas_fire_v6","3KWTYT08704JP2K089BCYREBGQV5L3","2","5","5","1,0,2","0","1","1","0",,"25210","2017-10-17 14:38:17","24495"
"A1TGT6FVIZRNS5","caus_thomas_fire_v6","34S9DKFK73Q7FQX5VOWOMGGTGQYYND","0","8","5","0,1,2","0","0","1","0",,"11557","2017-10-17 14:38:23","24496"
"A1P458P1C6JOXP","caus_thomas_fire_v6","3IKZ72A5B4H1FZGAQY40XV9DAF8NF5","7","7","5","2,0,1","0","1","1","0",,"16769","2017-10-17 14:38:26","24497"
"A2YP60DM1HYTH8","caus_thomas_fire_v6","3MMN5BL1WZ50H5FHU2OYJ7VG2ZR3MA","8","2","6","2,1,0","0","1","1","1",,"15074","2017-10-17 14:38:29","24498"
"A1T0NW527WZT7G","caus_thomas_fire_v6","3PH3VY7DJLYX7AGOJBPUW62MFW5WZS","0","8","6","0,1,2","0","1","1","0",,"11461","2017-10-17 14:38:32","24499"
"A34FFFROPR98NA","caus_thomas_fire_v6","3WYGZ5XF3WG9BY0TZ5CJC2BO5AXSKO","2","8","2","1,2,0","0","1","1","0",,"21278","2017-10-17 14:38:35","24500"
"AJNQ2PBD07FKE","caus_thomas_fire_v6","3FUI0JHJPXZZVJ77OKJJN8MA27733P","5","5","8","1,0,2","0","1","1","0",,"10605","2017-10-17 14:38:42","24501"
"A1IPD4WBT3A5GG","caus_thomas_fire_v6","3ZDAD0O1T1EGAYCFNOWYC1FC32QXT7","4","4","0","0,1,2","0","1","1","0",,"40538","2017-10-17 14:38:48","24502"
"A1LMI4J68TT02V","caus_thomas_fire_v6","3IRIK4HM3ALM52Q80FSINE2OICS6C4","0","8","7","2,0,1","0","1","1","0",,"33602","2017-10-17 14:39:03","24503"
"AMKEGABQMZYIK","caus_thomas_fire_v6","3OLQQLKKNSQDQVPTGPS2M67WPUPJEG","6","5","1","2,1,0","0","0","1","1",,"27380","2017-10-17 14:39:04","24504"
"A2P4XO56QBO5JS","caus_thomas_fire_v6","3T3IWE1XG6OW11B31A16ITJJ6Z3QT3","0","8","2","1,0,2","0","1","1","0",,"20990","2017-10-17 14:39:14","24505"
"A1ZHX85H6OKMKK","caus_thomas_fire_v6","3X3OR7WPZZ12CK3267IFABO2IGWL8L","6","1","6","2,0,1","0","1","1","1",,"15681","2017-10-17 14:39:24","24506"
"A2F93SIUUV5HQH","caus_thomas_fire_v6","3TUI152ZZBOVSHZUZRHWCN0OEGDQ1V","0","7","7","2,1,0","0","0","1","0",,"15683","2017-10-17 14:39:33","24507"
"A1I3F99BZ6PWUN","caus_thomas_fire_v6","3JRJSWSMQHM25HN4D40F6ZQ7TX43EP","0","8","8","2,1,0","0","1","1","0",,"16402","2017-10-17 14:39:45","24508"
"A1GFN7WDJ0GX5V","caus_thomas_fire_v6","3SLE99ER0NE5J7IDOKTY9SP15VOBZS","6","6","5","2,0,1","0","0","1","1",,"7901","2017-10-17 14:39:48","24509"
"A3BHWO6HBWCB6P
","caus_thomas_fire_v6","3R08VXYT7CWEN0AI0GXB5M9N53V7WE","0","8","7","2,1,0","0","0","1","0",,"20720","2017-10-17 14:39:49","24510"
"A120PN22KW0VPY","caus_thomas_fire_v6","3BF51CHDTVBI8ZF9KIQ2P4PDI1BH0N","4","3","6","1,2,0","0","1","1","1",,"31349","2017-10-17 14:39:53","24511"
"A231ZXYHPSNUJQ","caus_thomas_fire_v6","3LS2AMNW5FRGO96V5TF7OJDW7RNQOI","0","8","8","0,1,2","0","0","1","0",,"16029","2017-10-17 14:40:00","24512"
"A2YLSDVP8Z0ZMV
","caus_thomas_fire_v6","3XIQGXAUMC9TC0F8ALTX75NUE5Z7X5","1","8","4","2,1,0","0","0","1","0",,"39918","2017-10-17 14:40:02","24513"
"AJITIN95JSBAR","caus_thomas_fire_v6","3MRNMEIQW57ETFZTNFTVW323T7UDLK","4","4","4","2,1,0","0","0","1","0",,"10231","2017-10-17 14:40:02","24514"
"ALZVG5501Y5IX","caus_thomas_fire_v6","369J354OFDBZME6D21O1D5N3G4L6GF","7","6","7","0,2,1","0","1","1","0",,"15751","2017-10-17 14:40:03","24515"
"A14ZZHR5MXBT3C","caus_thomas_fire_v6","379J5II41OHJLLDTJA4F2LKOTIOLEC","8","8","8","2,0,1","0","0","1","1",,"22947","2017-10-17 14:40:16","24516"
"A3QDBNW2H8EMFW","caus_thomas_fire_v6","3M68NM076H8QB4FRICIDC91AIDW6RB","8","0","8","1,0,2","0","0","1","1",,"9705","2017-10-17 14:40:16","24517"
"A1TTFE7OTLIJW8","caus_thomas_fire_v6","3A4NIXBJ760HX95608SYFTPX2LMMLB","5","5","6","2,1,0","0","0","1","0",,"14651","2017-10-17 14:40:23","24518"
"A1H6AZSS5DQ0KD","caus_thomas_fire_v6","32RIADZISS5OXWBQEDP35LMS8NX4SY","0","6","8","1,2,0","0","0","1","0",,"15280","2017-10-17 14:40:31","24519"
"A289D98Z4GAZ28","caus_thomas_fire_v6","3WQQ9FUS6AVQZBHQFUTLW8SX6MI8BL","6","0","5","0,2,1","0","0","1","1",,"72794","2017-10-17 14:40:44","24520"
"A3AV5L0D66A01X
A3AV5L0D66A01X
A3AV5LOD66A01X","caus_thomas_fire_v6","3X4MXAO0BGPO5JUX9UVHA30N6EKRWQ","3","3","2","0,2,1","0","0","1","0",,"9640","2017-10-17 14:40:55","24521"
"A2ECKFN36SS0J7","caus_thomas_fire_v6","324G5B4FB39LFA9X794QYR0J4YG70C","8","0","8","1,2,0","0","1","1","1",,"28779","2017-10-17 14:41:00","24522"
"A2UNSF09FWX9S8
","caus_thomas_fire_v6","3483FV8BEEK97KY63M3CB1T26LH26T","4","4","4","1,2,0","0","0","1","1",,"18283","2017-10-17 14:41:18","24523"
"A178HLPTQ99LOG","caus_thomas_fire_v6","3V0Z7YWSIY1UMAD74UBKNT91NE82VK","8","1","8","2,1,0","0","0","1","1",,"15789","2017-10-17 14:41:18","24524"
"A258MR1IS96JEP","caus_thomas_fire_v6","3LWJHTCVCCNMIWT26QWH1P4IFQTQFT","4","4","4","2,1,0","0","0","1","1",,"17156","2017-10-17 14:41:29","24525"
"AR72L0JX4D03W","caus_thomas_fire_v6","3WOKGM4L71HS0G1WOVLS9DMEUNQO0J","1","8","7","0,1,2","0","1","1","0",,"22320","2017-10-17 14:41:43","24526"
"AW0XXNPFHP7XD","caus_thomas_fire_v6","3OLF68YTN92UVGMLHUZVBPPDB74FA6","0","5","8","0,1,2","0","0","1","0",,"27637","2017-10-17 14:41:46","24527"
"A1DQFPZ3T6WYT7","caus_thomas_fire_v6","3KV0LJBBH2MS070J5SPU15YW8DBRM6","0","8","0","1,2,0","0","0","1","0",,"23355","2017-10-17 14:41:52","24528"
"A21067N8V2SXXU
","caus_thomas_fire_v6","3TS1AR6UQQFCCEONARNB1YNNAZYF7F","6","7","5","0,1,2","0","1","1","1",,"7390","2017-10-17 14:41:56","24529"
"A1YA3HNCUJSJF4","caus_thomas_fire_v6","3RU7GD8VPOUAMPX9CXHR8JXNZK3PSM","0","8","1","2,0,1","0","1","1","0",,"19820","2017-10-17 14:41:57","24530"
"A3631EWK0VM9DE","caus_thomas_fire_v6","3EWIJTFFVO86OPO7UHIW41S0QLLE06","8","0","0","2,0,1","0","1","1","1",,"14641","2017-10-17 14:42:06","24531"
"A33Q9143TRWADD","caus_thomas_fire_v6","39LOEL67OS6LWGDD01EFEPULIU638Q","8","0","8","2,1,0","0","0","1","1",,"28788","2017-10-17 14:42:26","24532"
"AJH2N4RI8WA6U","caus_thomas_fire_v6","3VA45EW49NOS75MEKEPSNI5OZFW1OZ","8","4","8","1,0,2","0","1","1","1",,"11166","2017-10-17 14:42:34","24533"
"A1JRNNCMEW631Z","caus_thomas_fire_v6","3AAJC4I4FGTB1QGPCC6F7G8ED00JZO","4","5","8","0,2,1","0","0","1","0",,"19248","2017-10-17 14:42:39","24534"
"AMGV4GXMGPFRC","caus_thomas_fire_v6","3IAEQB9FMELU49BSRT0X5EJJREYWDW","8","0","0","2,1,0","0","1","1","1",,"29044","2017-10-17 14:42:40","24535"
"A10YS8AVLQWUZZ","caus_thomas_fire_v6","3LS2AMNW5FRGO96V5TF7OJDW7QBQO4","0","8","8","2,1,0","0","0","1","0",,"30278","2017-10-17 14:42:45","24536"
"A3PFJ6NJJQJDP3","caus_thomas_fire_v6","32N49TQG3GJJRD8BH94ZTBSZZ2ZVAJ","6","6","0","2,1,0","0","0","1","1",,"34015","2017-10-17 14:42:48","24537"
"A1VIOLLY8JO8XO","caus_thomas_fire_v6","3570Y55XZPK15YGJ8KJTWW7WFEFGYQ","8","8","0","0,1,2","0","1","1","1",,"21657","2017-10-17 14:43:02","24538"
"AQGGEM4U6RQ0Y","caus_thomas_fire_v6","354P56DE9K4LGJT9GBNA8X62ZQ0S7L","0","4","4","0,2,1","0","0","1","0",,"24218","2017-10-17 14:43:12","24539"
"A2M9D02CIVECE3","caus_thomas_fire_v6","374TNBHA8BWSINAXBGO5QABYL1OQYV","1","8","6","0,2,1","0","1","1","1",,"14424","2017-10-17 14:43:41","24540"
"A3OC0ZHZBEPEA3
","caus_thomas_fire_v6","35BLDD71I6YKSLGJT1KYA4J88N5ZVN","7","7","8","1,2,0","0","1","1","0",,"34985","2017-10-17 14:43:47","24541"
"A38DC3BG1ZCVZ2","caus_thomas_fire_v6","3Y54SXRO1LMOTUIKIJLBSUG89J3TU3","5","4","7","0,2,1","0","1","1","0",,"27498","2017-10-17 14:44:01","24542"
"A2P5IL629E7EC8","caus_thomas_fire_v6","3OXV7EAXLERYS2UP7MHHUBYUCZI639","7","0","2","2,1,0","0","1","1","1",,"17475","2017-10-17 14:44:13","24543"
"AEQ6KLNVTRKKR","caus_thomas_fire_v6","3TVRFO09GKGSRL4AEFU7QA5V9P7XL7","7","8","6","0,1,2","0","1","1","1",,"19846","2017-10-17 14:44:15","24544"
"A189V9652OVX56","caus_thomas_fire_v6","38F5OAUN5NDWQAFT5HBB4JZ0QFJ7HF","8","0","8","2,0,1","0","0","1","1",,"13825","2017-10-17 14:44:19","24545"
"A2XMO68T3BJFFA","caus_thomas_fire_v6","3NL0RFNU0FOQ9DYI94G1EZVIRUY4KX","0","8","4","0,2,1","0","1","1","0",,"14151","2017-10-17 14:44:29","24546"
"A24UEPUK7HVQAS","caus_thomas_fire_v6","3LYA37P8IQOAUCJROJQOMD1O1MEBK9","0","8","8","2,1,0","0","0","1","0",,"36179","2017-10-17 14:44:31","24547"
"A5H767UHFV6JC","caus_thomas_fire_v6","31Z0PCVWUKGMVJ6O5BS0I22O19E7TP","5","5","8","2,0,1","0","0","1","1",,"98451","2017-10-17 14:44:35","24548"
"AADRVG2QVZH75","caus_thomas_fire_v6","3ITXP059PWKE0EUBHKC7BNBBQKMJS3","4","4","8","0,2,1","0","0","1","0",,"11972","2017-10-17 14:44:43","24549"
"A21FPAPLNTZ3QU","caus_thomas_fire_v6","3X08E93BHVJXPLH7QOFF1EAEMQJ66E","5","5","5","0,1,2","0","0","1","0",,"6275","2017-10-17 14:44:45","24550"
"A11EOU75NFP39H","caus_thomas_fire_v6","3TVRFO09GKGSRL4AEFU7QA5V9P7LXV","8","8","8","1,2,0","0","1","1","1",,"30476","2017-10-17 14:44:45","24551"
"A37WEOO4QTXDMU","caus_thomas_fire_v6","3QAPZX2QN4EET9CR1XNV20JBTIW02R","6","0","2","2,0,1","0","0","1","1",,"22816","2017-10-17 14:44:51","24552"
"A2CWWHV2TJCD3M","caus_thomas_fire_v6","39K0FND3AHG01QE23H386F9M89PAMJ","1","8","5","1,2,0","0","1","1","0",,"20622","2017-10-17 14:44:58","24553"
"A3NTIB5IMQVLGS","caus_thomas_fire_v6","3NGI5ARFTT6AS5YFZE27CIAE9JKP1U","1","6","1","2,0,1","0","1","1","1",,"20997","2017-10-17 14:44:58","24554"
"A28HB7240OFGEW","caus_thomas_fire_v6","3A1PQ49WVHIIFO0RG1U2398NNS5H1C","7","7","0","0,2,1","0","1","1","1",,"18020","2017-10-17 14:44:59","24555"
"A384FUI8JZVGZM","caus_thomas_fire_v6","31LM9EDVOLTHK1269OVLCT153MTJN8","7","2","6","2,1,0","0","1","1","1",,"16876","2017-10-17 14:45:01","24556"
"A23TGEQ4CG90PA","caus_thomas_fire_v6","3L6L49WXW0YNRUDF2HCVCAC0U4345C","3","8","8","1,2,0","0","1","1","0",,"22009","2017-10-17 14:45:14","24557"
"AFWEAFM428F6D","caus_thomas_fire_v6","3PB5A5BD0V7IQEKILBTTJJNZBF77GH","2","7","5","2,0,1","0","0","1","0",,"18501","2017-10-17 14:45:23","24558"
"A7DKZVR74XXRH","caus_thomas_fire_v6","36AHBNMV1RDYTE6S6UILQB4Z2M0DYE","0","8","0","2,1,0","0","0","1","0",,"25676","2017-10-17 14:45:26","24559"
"A2Q0KK9YL1O7B6","caus_thomas_fire_v6","3LKC68YZ3A4L862HH2EDG8VIVS7OWN","1","5","0","2,1,0","0","1","1","0",,"19385","2017-10-17 14:45:35","24560"
"A3DURBBCP9TWJ3","caus_thomas_fire_v6","3G2UL9A02DFGTLVC9YK77SAAH1467E","0","4","7","0,1,2","0","1","1","0",,"26624","2017-10-17 14:45:41","24561"
"A22J1U3RTB7TG4","caus_thomas_fire_v6","369J354OFDBZME6D21O1D5N3G4NG6R","2","6","-1","0,2,1","0","0","1","1",,"16500","2017-10-17 14:45:42","24562"
"A3FTR5MN7ZLS8M","caus_thomas_fire_v6","32XVDSJFPZYBWNJYQ2AT0XQOWLXM2O","8","0","8","1,2,0","0","0","1","1",,"23192","2017-10-17 14:45:49","24563"
"AIV842WA1CLZZ","caus_thomas_fire_v6","32M8BPYGATNFFY1E42XQA8D8PVIIGN","6","1","7","0,2,1","0","0","1","1",,"17600","2017-10-17 14:46:22","24564"
"ASB8T0H7L99RF","caus_thomas_fire_v6","3JPSL1DZ5S06J8Z2FII8JUYMDYPNAK","3","3","6","1,0,2","0","1","1","1",,"6219","2017-10-17 14:46:35","24565"
"A2ZW029G7AOF3B","caus_thomas_fire_v6","3NPFYT4IZC5C5TQ93OXRDI0ND7BGX8","0","8","8","0,1,2","0","0","1","0",,"15719","2017-10-17 14:46:45","24566"
"A251IZWNCICC1Y","caus_thomas_fire_v6","30IQTZXKAK7FUPFOPM8OSQD76RY0X3","4","4","4","0,2,1","0","1","1","0",,"33423","2017-10-17 14:46:50","24567"
"A151IWEMV5XRTA","caus_thomas_fire_v6","36TFCYNS44BQ5PLKNUF9YICOS8ZHXL","8","0","0","2,1,0","0","0","1","1",,"27889","2017-10-17 14:46:52","24568"
"A239EUWY6SNDEZ","caus_thomas_fire_v6","3A7Y0R2P2OPMWVGABUIUAVS35ZOJXB","0","6","8","1,2,0","0","0","1","1",,"14032","2017-10-17 14:47:10","24569"
"A2X9VV3B0FZKHY","caus_thomas_fire_v6","3HUTX6F6VUOZWQ4A3IP6S1FTRLD2OK","0","8","8","0,1,2","0","0","1","0",,"18834","2017-10-17 14:47:13","24570"
"A2XVA21SCWHHEN
","caus_thomas_fire_v6","3GM6G9ZBKNY5GMDB9HUP1KZEWY8MTE","0","8","8","0,2,1","0","1","1","0",,"16735","2017-10-17 14:47:16","24571"
"A34XJD6XC6Z2MK","caus_thomas_fire_v6","3B3WTRP3DB3WP3041T6OVBK4WMR296","8","0","4","2,0,1","0","0","1","1",,"22617","2017-10-17 14:47:56","24572"
"AOY5NMIJRLFVT","caus_thomas_fire_v6","3D3VGR7TA0GRELS9ZAKF56PQ8MWR3S","0","7","7","1,2,0","0","1","1","0",,"14523","2017-10-17 14:48:01","24573"
"A371TYNO6L4LCC","caus_thomas_fire_v6","3MTMREQS4VJW628G7J9VFDBD6B4AWB","0","8","8","2,0,1","0","0","1","0",,"20506","2017-10-17 14:48:31","24574"
"A1C1KG9F80G5O","caus_thomas_fire_v6","3X1FV8S5JXSK14LE39W9PX32XXFGVJ","8","0","0","1,2,0","0","0","1","1",,"24135","2017-10-17 14:48:34","24575"
"A1FU5C6US2L0J0","caus_thomas_fire_v6","3NLZY2D53PQ8IO3YS1ZFW292CMLQL4","1","6","7","1,0,2","0","1","1","0",,"45773","2017-10-17 14:48:41","24576"
"A2YGAEODJ5SSF6","caus_thomas_fire_v6","3DI28L7YXAF6VE9PQ0MWI6BAVCE1EH","0","8","8","1,0,2","0","1","1","0",,"18308","2017-10-17 14:48:43","24577"
"A2L55L6Z0CQOED","caus_thomas_fire_v6","3Y9N9SS8LYCXDB94H9PV0H8MTL63DZ","7","0","6","0,2,1","0","0","1","1",,"54557","2017-10-17 14:48:49","24578"
"A3ESZWJBD8M1Z","caus_thomas_fire_v6","3TMFV4NEP8FINEF1ALPHJM5IGNY8WZ","0","8","8","0,2,1","0","1","1","0",,"31697","2017-10-17 14:48:49","24579"
"A32161UZYCOWQ1","caus_thomas_fire_v6","35BLDD71I6YKSLGJT1KYA4J88N2VZG","0","2","5","1,2,0","0","1","1","0",,"33598","2017-10-17 14:48:58","24580"
"A2VX8B1CJXRN2","caus_thomas_fire_v6","3TU5ZICBRD2D3HJFYCQBRXNWSL98QL","0","7","6","2,0,1","0","0","1","0",,"77061","2017-10-17 14:49:13","24581"
"A26M997VYVK0E6","caus_thomas_fire_v6","3P1L2B7AD1Q5XCQIDO7B7XE2XKOOLD","4","6","4","2,1,0","0","0","1","0",,"10613","2017-10-17 14:49:14","24582"
"A1KXYURHCYHKOL","caus_thomas_fire_v6","3OLF68YTN92UVGMLHUZVBPPDB8EAFD","8","0","5","1,0,2","0","0","1","1",,"19649","2017-10-17 14:49:25","24583"
"A2I10BEXAZIR95","caus_thomas_fire_v6","39OWYR0EPKSVRYKOX0DBEB7KEZHYFB","5","6","4","2,0,1","0","1","1","0",,"6226","2017-10-17 14:49:32","24584"
"A13UMY3NL33676","caus_thomas_fire_v6","3XLBSAQ9Z4DIHVFNB3HI4Q35M4UZ7P","0","8","5","2,0,1","0","0","1","0",,"16439","2017-10-17 14:49:33","24585"
"AR2BDL1QQGN53","caus_thomas_fire_v6","3Q5ZZ9ZEVOGOAV0HEK28TMS5WQZ58K","4","4","0","0,1,2","0","0","1","0",,"16784","2017-10-17 14:49:39","24586"
"A2PJ08T9B0LOK9","caus_thomas_fire_v6","3OB0CAO74HQF5UBUSQ1BHWJXUEUHYS","7","0","6","0,2,1","0","1","1","0",,"43491","2017-10-17 14:49:40","24587"
"A3KHOW5FW32RUL","caus_thomas_fire_v6","3K2755HG5S4STNPX14QX1QXJWBBFDK","1","7","5","2,1,0","0","1","1","0",,"23357","2017-10-17 14:49:45","24588"
"A2N3HHEBCJRDJO","caus_thomas_fire_v6","3U5JL4WY5KAWTDXP8NVQ4T3KN3EX4G","0","8","5","1,2,0","0","0","1","0",,"23801","2017-10-17 14:49:53","24589"
"A240OTT1T85UGT","caus_thomas_fire_v6","3V5Q80FXIXSAA1BOKK5E4YHIWUC23K","8","0","8","1,0,2","0","1","1","1",,"17182","2017-10-17 14:49:54","24590"
"AP3EZGN902UO2","caus_thomas_fire_v6","3RWE2M8QWHBAIV1KNGLFUOM94DP0NK","8","8","8","2,0,1","0","0","1","1",,"7813","2017-10-17 14:50:02","24591"
"A2BKX3XN16KR0V","caus_thomas_fire_v6","304SM51WA358IVWZTSZQDZSYIFJSBX","0","8","8","1,0,2","0","1","1","0",,"14626","2017-10-17 14:50:11","24592"
"A1XJCPE83VNDVP","caus_thomas_fire_v6","3PS7W85Z8Z3Q92UHK8QKWYTUWZ3T9O","7","7","7","1,0,2","0","1","1","0",,"47621","2017-10-17 14:50:14","24593"
"A110JBKYAC0WAW","caus_thomas_fire_v6","3T3IWE1XG6OW11B31A16ITJJ6Z1TQ4","0","8","8","2,0,1","0","0","1","0",,"22591","2017-10-17 14:50:16","24594"
"A3AOE3JLHSHEC9","caus_thomas_fire_v6","3NKQQ8O39Y6HC5MNWTLWNQYM6YRDUI","0","8","0","2,0,1","0","1","1","0",,"15608","2017-10-17 14:50:39","24595"
"A8TQSHYC5OOY4","caus_thomas_fire_v6","3JNQLM5FT4NRQ51DQQ9E0KBZWG92L4","8","8","8","1,0,2","0","1","1","1",,"35905","2017-10-17 14:50:42","24596"
"A2GE0813KOHJUU","caus_thomas_fire_v6","3K5TEWLKGVCYXVR9TXWCA9GICA7VIQ","0","8","8","1,2,0","0","1","1","0",,"19364","2017-10-17 14:50:44","24597"
"A4HBWAVHBH9OJ","caus_thomas_fire_v6","3EFVCAY5L3AWHUF23M62UWBAERW8JB","0","8","8","0,1,2","0","0","1","0",,"23031","2017-10-17 14:50:45","24598"
"A3S67QA0SQVPUJ","caus_thomas_fire_v6","3B2X28YI3WG3VXY2MFWNCUW60RX6B2","0","8","8","0,2,1","0","1","1","0",,"27696","2017-10-17 14:50:50","24599"
"A297WLY9EYPY0C","caus_thomas_fire_v6","3EQHHY4HQST33A6ZXIEWLZ93K9DG5C","8","1","5","0,2,1","0","0","1","1",,"25748","2017-10-17 14:51:06","24600"
"A14VY6QXKBLC0D","caus_thomas_fire_v6","3Z7VU45IPYI4690LMN093GCSJJ2Z12","7","0","4","2,1,0","0","1","1","1",,"12828","2017-10-17 14:51:11","24601"
"A2VY16N1O40VEL","caus_thomas_fire_v6","36AHBNMV1RDYTE6S6UILQB4Z2LLYDI","8","0","8","2,1,0","0","0","1","1",,"19533","2017-10-17 14:51:26","24602"
"A58QOLDFC179Q","caus_thomas_fire_v6","3JCG6DTRV3RJ9LJBK67BDO8WMRZQQI","8","8","2","1,0,2","0","1","1","1",,"111130","2017-10-17 14:51:35","24603"
"A1RY940OZBOXPR","caus_thomas_fire_v6","3TVRFO09GKGSRL4AEFU7QA5V9PALXY","4","4","1","2,0,1","0","0","1","0",,"22465","2017-10-17 14:51:36","24604"
"A32FIOOQE8U98U","caus_thomas_fire_v6","3VW04L3ZLT7NRFLZSYXV140IGYJXXV","6","1","6","2,1,0","0","0","1","1",,"13662","2017-10-17 14:51:39","24605"
"A1MJG0B91SYOAL","caus_thomas_fire_v6","374TNBHA8BWSINAXBGO5QABYL1QYQ5","5","1","4","0,1,2","0","1","1","1",,"25214","2017-10-17 14:51:39","24606"
"A1T208Y507O4RS","caus_thomas_fire_v6","3M68NM076H8QB4FRICIDC91AID06RF","8","0","7","1,0,2","0","0","1","1",,"14280","2017-10-17 14:51:43","24607"
"AMYRVTU53MLYO","caus_thomas_fire_v6","30MVJZJNHMEWVZYC8ECGUS6LYXEJ9B","0","7","2","2,0,1","0","0","1","0",,"21702","2017-10-17 14:51:57","24608"
"A1I6LWJWGKXOUU","caus_thomas_fire_v6","3PDJHANYK5HDMA1OM76JY5Z4V42H6T","2","8","7","2,1,0","0","1","1","0",,"34207","2017-10-17 14:52:02","24609"
"A19ZWBQT8A3LIR","caus_thomas_fire_v6","39GXDJN2OTF58PFWKBKLXKM49E2V8I","5","0","3","2,1,0","0","1","1","1",,"17331","2017-10-17 14:53:10","24610"
"A2DQO6MHBPS0M6","caus_thomas_fire_v6","3LOZAJ85YDEMQZI249C2BE6M3PK2XR","8","0","7","2,1,0","0","1","1","1",,"21050","2017-10-17 14:53:11","24611"
"A135O3T299Y0F4","caus_thomas_fire_v6","3GGAI1SQEVZOU5B0NVZZCAZA8C8CML","4","0","4","1,0,2","0","0","1","1",,"36271","2017-10-17 14:53:11","24612"
"A3MVQVS782U9SG","caus_thomas_fire_v6","3FUI0JHJPXZZVJ77OKJJN8MA28J333","6","8","7","2,0,1","0","0","1","1",,"7011","2017-10-17 14:53:19","24613"
"A3EATVSTH9HYIP","caus_thomas_fire_v6","3B3WTRP3DB3WP3041T6OVBK4WMS92E","8","7","3","0,2,1","0","1","1","0",,"52052","2017-10-17 14:53:23","24614"
"A1JQE1NJI0GDZE","caus_thomas_fire_v6","337RC3OW0530NWZFE0TP2P8ATE2VL5","6","6","6","2,1,0","0","1","1","0",,"20083","2017-10-17 14:53:57","24615"
"A3QDZ935V5U31J
","caus_thomas_fire_v6","3HFNH7HEMHFSWWPXHA2ZJA4UG51QG0","7","0","8","0,1,2","0","0","1","1",,"15926","2017-10-17 14:54:01","24616"
"A27O2IILV3S5YS","caus_thomas_fire_v6","3TOK3KHVJTJ6IR1G9U61OSW12107O6","5","5","8","1,0,2","0","0","1","0",,"16876","2017-10-17 14:54:11","24617"
"A36MOV8E6SYHCR","caus_thomas_fire_v6","3VA45EW49NOS75MEKEPSNI5OZEK1OL","6","5","7","1,0,2","0","0","1","1",,"16179","2017-10-17 14:54:14","24618"
"A3QUGJF2AN8TF2","caus_thomas_fire_v6","31LM9EDVOLTHK1269OVLCT153LHNJY","8","0","8","1,0,2","0","0","1","1",,"17495","2017-10-17 14:54:50","24619"
"A2873IWWYUPLSP","caus_thomas_fire_v6","3KXIR214I4HVSXUSKYAXE39OAUF24C","0","8","8","0,2,1","0","0","1","0",,"9625","2017-10-17 14:54:57","24620"
"A2ZR3PL5I0KPQ6","caus_thomas_fire_v6","3M0BCWMB8VX1PCD8DX9RAOVJOTQWBT","8","0","8","1,2,0","0","0","1","1",,"22581","2017-10-17 14:55:00","24621"
"A12CEB35YXRM8X","caus_thomas_fire_v6","3D4CH1LGEAUM4X8B08RDXFE565YG95","3","4","6","2,0,1","0","1","1","0",,"3629","2017-10-17 14:55:05","24622"
"A25RGFIS2KY1XS","caus_thomas_fire_v6","3TUI152ZZBOVSHZUZRHWCN0OEGJ1QC","8","0","0","2,1,0","0","0","1","1",,"21909","2017-10-17 14:55:06","24623"
"AB073O87AEMEY","caus_thomas_fire_v6","3U4J9857OECMZXC75P1FI8W2V2I7B3","5","1","8","0,1,2","0","0","1","1",,"33296","2017-10-17 14:55:18","24624"
"AZIAQJWXTSFUX","caus_thomas_fire_v6","3WMINLGALB4NS42BQS9U3J4AEVOCA6","5","5","2","1,2,0","0","0","1","0",,"11906","2017-10-17 14:55:23","24625"
"A38R7SIVV118KT","caus_thomas_fire_v6","386PBUZZXFYRW1ZLXBF6Z1XGYRWJL9","4","1","4","2,1,0","0","0","1","1",,"17795","2017-10-17 14:55:33","24626"
"AHUKCHMKUJHQQ","caus_thomas_fire_v6","3CCZ6YKWR7KOO0JRJC8MTINGGWK95G","4","0","8","2,1,0","0","0","1","1",,"35503","2017-10-17 14:55:50","24627"
"A3NQ4ZG8PEN9X4","caus_thomas_fire_v6","37C0GNLMHF4WAUWM0BNT7KK63CAD6H","0","6","8","0,1,2","0","0","1","0",,"19245","2017-10-17 14:56:02","24628"
"AS9E0S6DBSWH7","caus_thomas_fire_v6","3P1L2B7AD1Q5XCQIDO7B7XE2XL4OLV","8","0","8","0,2,1","0","0","1","1",,"9789","2017-10-17 14:56:09","24629"
"A23GVZ7MEINT6J","caus_thomas_fire_v6","3Z7EFSHGN9FZOHA41218NRF8FGXCXA","1","7","6","0,1,2","0","0","1","0",,"54218","2017-10-17 14:56:10","24630"
"A31L5H1AOWJLV1","caus_thomas_fire_v6","3GA6AFUKOOPEPRE6358LR2NKLD1H3O","8","8","0","2,1,0","0","1","1","1",,"26880","2017-10-17 14:56:12","24631"
"A23JA6ICO4BPQ5","caus_thomas_fire_v6","3S96KQ6I9M52CS7YWOVMIUCKNKLTD8","0","5","7","0,2,1","0","0","1","0",,"7649","2017-10-17 14:56:20","24632"
"A1UHNDB2EQ8TK0","caus_thomas_fire_v6","3U088ZLJVKU05PAYFHC2Q7Z0XOI0WY","4","4","3","2,1,0","0","1","1","1",,"6549","2017-10-17 14:56:24","24633"
"A32F070MKM1ICD","caus_thomas_fire_v6","3B4YI393V9X7ZHD14ELL3O2YM4HSSC","4","6","5","1,0,2","0","1","1","0",,"19063","2017-10-17 14:56:31","24634"
"AQJL8VURU34A1","caus_thomas_fire_v6","3EKVH9QMEY58STDLD9BQH73UN78D20","6","6","5","0,2,1","0","0","1","1",,"28782","2017-10-17 14:56:36","24635"
"A6XFW3LMBFEVG","caus_thomas_fire_v6","3I0BTBYZAXM4UU5YUIUQB4KG8XV0YC","3","7","7","0,1,2","0","0","1","0",,"14910","2017-10-17 14:56:49","24636"
"A3F8QZ4E8T1ZJ7","caus_thomas_fire_v6","3HFNH7HEMHFSWWPXHA2ZJA4UG52GQR","0","8","8","0,1,2","0","1","1","0",,"65211","2017-10-17 14:56:56","24637"
"A33FBG0T3WLLHY","caus_thomas_fire_v6","39LOEL67OS6LWGDD01EFEPULIT083N","0","8","8","2,0,1","0","0","1","0",,"8677","2017-10-17 14:57:22","24638"
"AG7C4X3WKKBV","caus_thomas_fire_v6","3II4UPYCOJ8PKCF6FK1RDP1X3DMDQE","4","7","7","2,0,1","0","1","1","1",,"87758","2017-10-17 14:58:02","24639"
"A13ML9QGIEH75V","caus_thomas_fire_v6","336KAV9KYQTBQ48C95Y4USDV5VF2YY","8","0","8","2,0,1","0","0","1","1",,"34459","2017-10-17 14:58:09","24640"
"A29VPSFOR6OO5H","caus_thomas_fire_v6","33CID57104UGBNXWUQNJJUGR2UB3LI","0","8","5","1,0,2","0","1","1","0",,"20792","2017-10-17 14:58:20","24641"
"A3CMGKHSBTC2XQ","caus_thomas_fire_v6","36DSNE9QZ5ZZ2M2IA3VYRI1ATW1OJV","8","8","7","1,0,2","0","0","1","1",,"17284","2017-10-17 14:58:20","24642"
"A46DGMYAWYN1","caus_thomas_fire_v6","3W8CV64QJ2004T3MKE9VIFQ6L5CH96","8","8","0","0,1,2","0","1","1","0",,"11753","2017-10-17 14:58:34","24643"
"A3D1KY32KA7US9","caus_thomas_fire_v6","3CPLWGV3MO0SEPPXNC48NZN27HL9N7","0","6","8","0,2,1","0","1","1","0",,"26192","2017-10-17 14:58:41","24644"
"A2CO0L7AHULZ51","caus_thomas_fire_v6","3P4RDNWND57P60RFC8IT7L5OHN3JIW","4","0","4","2,1,0","0","1","1","1",,"28612","2017-10-17 14:58:45","24645"
"A2HJ7BEVEZDPNX","caus_thomas_fire_v6","3OWEPKL089DO06148F6O93WWCRX7NT","4","4","8","1,0,2","0","1","1","0",,"15755","2017-10-17 14:58:49","24646"
"A30N7QXF4W4VCM","caus_thomas_fire_v6","3A1COHJ8NJW0QOKCFM3HIJVV1ZU8H8","7","0","7","0,2,1","0","0","1","1",,"9561","2017-10-17 14:58:55","24647"
"A2OVX9UW5WANQE","caus_thomas_fire_v6","37QW5D2ZRGNPGXYSQGFGMX2XAA78SP","0","8","4","0,1,2","0","0","1","0",,"31107","2017-10-17 14:59:04","24648"
"A5GM9CNAS6G92","caus_thomas_fire_v6","3CP1TO84PT2DOGYSY3T7JVF2AQB52L","4","0","4","0,2,1","0","1","1","1",,"25887","2017-10-17 14:59:39","24649"
"A14CXE3OMENOYS","caus_thomas_fire_v6","3O7L7BFSHEQHVK5NY772A5SWCF7EI6","5","7","4","0,2,1","0","0","1","1",,"18498","2017-10-17 14:59:40","24650"
"A1WCRV1WEWA63I","caus_thomas_fire_v6","3NKQQ8O39Y6HC5MNWTLWNQYM6YTDUK","2","4","8","0,2,1","0","0","1","0",,"22649","2017-10-17 14:59:43","24651"
"A3G2874FQJU4YN","caus_thomas_fire_v6","3DH6GAKTYYQ1WFBOYC7IH3N2Q3VYZH","4","0","4","1,2,0","0","1","1","1",,"19790","2017-10-17 14:59:44","24652"
"AOLQA0CBEC46G","caus_thomas_fire_v6","3WLEIWSYHOIP49INZ5UG8SISFYP2HK","7","7","8","2,1,0","0","0","1","0",,"32666","2017-10-17 14:59:57","24653"
"a3hylvfudkjfkc","caus_thomas_fire_v6","39GAF6DQWR1NXPVBLQB6IAZWV8Z1V7","0","5","8","0,2,1","0","1","1","0",,"38599","2017-10-17 14:59:59","24654"
"A3R93NB2CPSTVQ","caus_thomas_fire_v6","3QRYMNZ7FYIBY4YBLI9PEZOE1ONTNQ","7","7","6","2,1,0","0","1","1","0",,"32538","2017-10-17 15:00:00","24655"
"A24EYMUIGY8M5O","caus_thomas_fire_v6","3K2755HG5S4STNPX14QX1QXJWBEFDN","7","1","7","1,2,0","0","1","1","1",,"18743","2017-10-17 15:00:03","24656"
"A3MVGOBJ5BANP8","caus_thomas_fire_v6","3WQ3B2KGE8H8OBX5G9K6HY5PSGJ1B1","0","8","4","0,1,2","0","0","1","0",,"32563","2017-10-17 15:00:25","24657"
"A28NYOARK75Z1X","caus_thomas_fire_v6","3PH3VY7DJLYX7AGOJBPUW62MFWDZW3","0","8","8","1,0,2","0","1","1","0",,"16448","2017-10-17 15:00:29","24658"
"A259AUMRD85UWF","caus_thomas_fire_v6","3TK8OJTYM1MQEHED6SMWJ6HUYOXVPX","2","7","6","1,0,2","0","0","1","0",,"11548","2017-10-17 15:00:32","24659"
"A2CSLM9J063ZAP","caus_thomas_fire_v6","3ZGVPD4G6TI5FTCUO6KJ9MVNB2VZTD","6","1","7","0,1,2","0","1","1","1",,"24627","2017-10-17 15:00:46","24660"
"A3HOBJ4PJUOCUN","caus_thomas_fire_v6","3JPSL1DZ5S06J8Z2FII8JUYMDZ3NA0","3","5","7","1,0,2","0","1","1","0",,"30018","2017-10-17 15:00:47","24661"
"A3IMQJZQEV9BIO","caus_thomas_fire_v6","32N49TQG3GJJRD8BH94ZTBSZZ25AV4","8","0","8","1,0,2","0","1","1","1",,"32830","2017-10-17 15:01:04","24662"
"A1CH6M8KNYMJ92","caus_thomas_fire_v6","3ATPCQ38J8B0V73GMKRJ0AWTHIUAYY","6","0","5","2,0,1","0","0","1","1",,"10476","2017-10-17 15:01:11","24663"
"A24OBXYMT3THDT","caus_thomas_fire_v6","3FQ5JJ512LPCVL8OR9VXD81IIBXNKF","0","8","8","1,0,2","0","1","1","1",,"22901","2017-10-17 15:01:12","24664"
"AQY83XO3E149M","caus_thomas_fire_v6","3WSELTNVR334EL4MCE4KST4E2HPTA7","7","7","8","1,2,0","0","0","1","1",,"16613","2017-10-17 15:01:17","24665"
"A1SXLST66ZINTJ","caus_thomas_fire_v6","32EYX73OY0ABDF5SEUGGSFFQLZKUR7","0","6","8","1,0,2","0","1","1","0",,"27958","2017-10-17 15:01:18","24666"
"A3G55NZ2MOUOQK","caus_thomas_fire_v6","3H7Z272LX78NIC2JSOKQWXJS7Q3LPC","8","0","8","1,2,0","0","0","1","1",,"16981","2017-10-17 15:01:19","24667"
"A1G4QY3W5J5PMW","caus_thomas_fire_v6","3KJYX6QCM9CUS6BFBFHCMAVIPPSVJY","7","4","2","2,1,0","0","0","1","0",,"12432","2017-10-17 15:01:26","24668"
"A2GOUEL2TTOUN3","caus_thomas_fire_v6","36TFCYNS44BQ5PLKNUF9YICOS7RHXB","0","8","0","2,1,0","0","0","1","0",,"63324","2017-10-17 15:01:33","24669"
"A312SMN11YLE66","caus_thomas_fire_v6","3HPZF4IVNMUOOM0E6YNA65MHHLHCY4","0","8","8","1,2,0","0","1","1","0",,"9068","2017-10-17 15:01:34","24670"
"A1FX4X87384N40","caus_thomas_fire_v6","32M8BPYGATNFFY1E42XQA8D8PVMIGR","0","8","8","0,1,2","0","0","1","0",,"29185","2017-10-17 15:01:41","24671"
"A1YOAM3TVFPI4Z","caus_thomas_fire_v6","3FE2ERCCZX9VOX5G5G0IOENM2V8POX","8","0","1","2,1,0","0","0","1","1",,"18533","2017-10-17 15:01:41","24672"
"A1PX1LSJZM3RIP","caus_thomas_fire_v6","3OUYGIZWR7ZALGDX3VY7YDR44SSP07","0","7","6","0,2,1","0","1","1","0",,"39983","2017-10-17 15:01:43","24673"
"A3D3D3F8X3NQYH","caus_thomas_fire_v6","373ERPL3YO9WD2Q3EPQ6NJTO2LDRTD","8","0","8","0,1,2","0","1","1","1",,"47797","2017-10-17 15:02:07","24674"
"A26L7403RHRQP8","caus_thomas_fire_v6","37WLF8U1WPR4O02WSS9GBXFWNL96KP","7","1","5","1,0,2","0","1","1","1",,"9954","2017-10-17 15:02:10","24675"
"A3P5BJ1GA3NLBY","caus_thomas_fire_v6","3YT88D1N08Z5RHFE9QBI4U3CDU73KG","0","8","4","0,1,2","0","0","1","0",,"17698","2017-10-17 15:02:10","24676"
"A21753FQKCM5DQ","caus_thomas_fire_v6","34MAJL3QP4OKDFQBOYO2XDEGG8H34Q","8","0","2","2,0,1","0","0","1","1",,"17972","2017-10-17 15:02:12","24677"
"A3BBK5YDUBRKYW","caus_thomas_fire_v6","3TVRFO09GKGSRL4AEFU7QA5V9PCLX0","4","8","4","1,2,0","0","1","1","0",,"29524","2017-10-17 15:02:15","24678"
"A2OR95QZT4H80T","caus_thomas_fire_v6","3BEFOD78W6ULZ1YLUGTHTCNMGZXM4O","7","1","3","0,2,1","0","1","1","1",,"26674","2017-10-17 15:02:16","24679"
"A1ANSFI5L7SUUH","caus_thomas_fire_v6","31QNSG6A5RU3XZE02DH5R661NWZ786","3","3","3","0,1,2","0","0","1","1",,"9748","2017-10-17 15:02:19","24680"
"A39FJ7RWX4B9JZ","caus_thomas_fire_v6","39K0FND3AHG01QE23H386F9M88BAM3","1","8","0","1,0,2","0","1","1","0",,"32163","2017-10-17 15:02:28","24681"
"A35QZFRG4FKK3Z","caus_thomas_fire_v6","3WEV0KO0OMT1XSUJ7OQW8PGYL18DS4","8","0","5","1,0,2","0","0","1","1",,"44098","2017-10-17 15:02:33","24682"
"A3SEOHQOU2R8XW","caus_thomas_fire_v6","3AQF3RZ558JT8EAIRHIJVKNRFPLF6P","7","8","8","0,1,2","0","1","1","1",,"30233","2017-10-17 15:02:42","24683"
"A36W1S4Z2LSNTC","caus_thomas_fire_v6","3EG49X351UDA8013RBO51RNYJUO6XE","0","8","8","1,0,2","0","0","1","0",,"13838","2017-10-17 15:03:06","24684"
"AZ9CV3Z86OUQH","caus_thomas_fire_v6","3XIQGXAUMC9TC0F8ALTX75NUE587XE","8","0","0","2,0,1","0","1","1","1",,"22698","2017-10-17 15:03:10","24685"
"A3LNMP0BSGUEWO","caus_thomas_fire_v6","3HYA4D452RK5QDRH4F6G576FZKP2F1","0","8","8","2,0,1","0","0","1","0",,"82751","2017-10-17 15:03:15","24686"
"A2OIGST8UL7HJP","caus_thomas_fire_v6","3QIYRE09Y3IAPKM2JZPF8T5J95YN1D","8","0","8","1,2,0","0","1","1","1",,"11027","2017-10-17 15:03:25","24687"
