"subject","version","assignmentId","rating","question_ind","trial_ind","focal_high","alt_high","rt","stamp","id"
"A1MJVTR0PCKBWW","caus_thomas_all_v2","3PH3VY7DJLYX7AGOJBPUW62M9RSZW2","6","0","0","4","1","29421","2017-09-15 13:34:16","5272"
"A2JJ3HTE17QJBZ","caus_thomas_all_v2","3NXNZ5RS1AY3B4XA75NJR21C1XV79T","1","0","0","3","7","26882","2017-09-15 13:34:21","5273"
"A6ZAKE3FP8YKY","caus_thomas_all_v2","3F1567XTNW6DHM2P34WPRTI76NN9QT","3","0","0","1","5","12603","2017-09-15 13:34:25","5274"
"A2JJ3HTE17QJBZ","caus_thomas_all_v2","3NXNZ5RS1AY3B4XA75NJR21C1XV79T","1","1","1","4","5","8815","2017-09-15 13:34:31","5275"
"A6ZAKE3FP8YKY","caus_thomas_all_v2","3F1567XTNW6DHM2P34WPRTI76NN9QT","6","1","1","3","3","8556","2017-09-15 13:34:34","5276"
"A1BEBN58T1E0TH","caus_thomas_all_v2","39JEC7537U27KS591N0QZ6INT05CV7","4","0","0","6","1","15987","2017-09-15 13:34:35","5277"
"A2JJ3HTE17QJBZ","caus_thomas_all_v2","3NXNZ5RS1AY3B4XA75NJR21C1XV79T","6","2","2","6","2","4596","2017-09-15 13:34:36","5278"
"A6ZAKE3FP8YKY","caus_thomas_all_v2","3F1567XTNW6DHM2P34WPRTI76NN9QT","5","2","2","8","10","7455","2017-09-15 13:34:43","5279"
"A2PZG5F8RIESH9","caus_thomas_all_v2","3Z4GS9HPNVBZXL9HS8PZD6A667777H","4","0","0","4","6","36269","2017-09-15 13:34:43","5280"
"A2JJ3HTE17QJBZ","caus_thomas_all_v2","3NXNZ5RS1AY3B4XA75NJR21C1XV79T","1","3","3","1","9","6870","2017-09-15 13:34:44","5281"
"A1MJVTR0PCKBWW","caus_thomas_all_v2","3PH3VY7DJLYX7AGOJBPUW62M9RSZW2","8","1","1","7","10","26866","2017-09-15 13:34:44","5282"
"A1BEBN58T1E0TH","caus_thomas_all_v2","39JEC7537U27KS591N0QZ6INT05CV7","4","1","1","5","7","8816","2017-09-15 13:34:44","5283"
"A2PZG5F8RIESH9","caus_thomas_all_v2","3Z4GS9HPNVBZXL9HS8PZD6A667777H","4","1","1","7","7","3957","2017-09-15 13:34:48","5284"
"A2JJ3HTE17QJBZ","caus_thomas_all_v2","3NXNZ5RS1AY3B4XA75NJR21C1XV79T","7","4","4","8","10","6637","2017-09-15 13:34:51","5285"
"A1BEBN58T1E0TH","caus_thomas_all_v2","39JEC7537U27KS591N0QZ6INT05CV7","4","2","2","8","5","6799","2017-09-15 13:34:52","5286"
"A6ZAKE3FP8YKY","caus_thomas_all_v2","3F1567XTNW6DHM2P34WPRTI76NN9QT","3","3","3","2","1","8704","2017-09-15 13:34:52","5287"
"A1MJVTR0PCKBWW","caus_thomas_all_v2","3PH3VY7DJLYX7AGOJBPUW62M9RSZW2","6","2","2","6","9","8412","2017-09-15 13:34:54","5288"
"A1BEBN58T1E0TH","caus_thomas_all_v2","39JEC7537U27KS591N0QZ6INT05CV7","4","3","3","3","4","3692","2017-09-15 13:34:57","5289"
"AXPGZD6Q9556W","caus_thomas_all_v2","3B3WTRP3DB3WP3041T6OVBK4QH9298","2","0","0","3","8","31199","2017-09-15 13:34:59","5290"
"A2PZG5F8RIESH9","caus_thomas_all_v2","3Z4GS9HPNVBZXL9HS8PZD6A667777H","0","2","2","10","9","10933","2017-09-15 13:35:00","5291"
"A6ZAKE3FP8YKY","caus_thomas_all_v2","3F1567XTNW6DHM2P34WPRTI76NN9QT","4","4","4","5","6","8438","2017-09-15 13:35:02","5292"
"A2VXM4EO7RLLWZ","caus_thomas_all_v2","3U5NZHP4LR3LWGJT135S45QLK48PH7","8","0","0","8","9","44921","2017-09-15 13:35:07","5293"
"A2PZG5F8RIESH9","caus_thomas_all_v2","3Z4GS9HPNVBZXL9HS8PZD6A667777H","4","3","3","5","2","5880","2017-09-15 13:35:07","5294"
"A1BEBN58T1E0TH","caus_thomas_all_v2","39JEC7537U27KS591N0QZ6INT05CV7","0","4","4","10","3","10524","2017-09-15 13:35:08","5295"
"A1MJVTR0PCKBWW","caus_thomas_all_v2","3PH3VY7DJLYX7AGOJBPUW62M9RSZW2","6","3","3","3","8","19827","2017-09-15 13:35:14","5296"
"A2PZG5F8RIESH9","caus_thomas_all_v2","3Z4GS9HPNVBZXL9HS8PZD6A667777H","2","4","4","2","10","6962","2017-09-15 13:35:15","5297"
"AXPGZD6Q9556W","caus_thomas_all_v2","3B3WTRP3DB3WP3041T6OVBK4QH9298","5","1","1","6","7","16756","2017-09-15 13:35:16","5298"
"AXPGZD6Q9556W","caus_thomas_all_v2","3B3WTRP3DB3WP3041T6OVBK4QH9298","6","2","2","9","4","8138","2017-09-15 13:35:26","5299"
"AXPGZD6Q9556W","caus_thomas_all_v2","3B3WTRP3DB3WP3041T6OVBK4QH9298","5","3","3","8","1","3499","2017-09-15 13:35:30","5300"
"A1MJVTR0PCKBWW","caus_thomas_all_v2","3PH3VY7DJLYX7AGOJBPUW62M9RSZW2","4","4","4","5","5","16939","2017-09-15 13:35:32","5301"
"AXPGZD6Q9556W","caus_thomas_all_v2","3B3WTRP3DB3WP3041T6OVBK4QH9298","3","4","4","7","10","5420","2017-09-15 13:35:36","5302"
"A2PDRB9EI2J77Q","caus_thomas_all_v2","3Q5ZZ9ZEVOGOAV0HEK28TMS5QLI58N","3","0","0","6","8","53417","2017-09-15 13:35:41","5303"
"A3H9XHNUS12SSA","caus_thomas_all_v2","3CPLWGV3MO0SEPPXNC48NZN21C09N6","4","0","0","4","6","78714","2017-09-15 13:35:45","5304"
"A2VXM4EO7RLLWZ","caus_thomas_all_v2","3U5NZHP4LR3LWGJT135S45QLK48PH7","6","1","1","9","5","42675","2017-09-15 13:35:51","5305"
"AHWF0QIK9VTDS","caus_thomas_all_v2","3R3YRB5GRF4JEYJBCJUUXPQGFQBAUE","4","0","0","2","7","34767","2017-09-15 13:36:10","5306"
"A2PDRB9EI2J77Q","caus_thomas_all_v2","3Q5ZZ9ZEVOGOAV0HEK28TMS5QLI58N","7","1","1","7","3","30717","2017-09-15 13:36:13","5307"
"AHWF0QIK9VTDS","caus_thomas_all_v2","3R3YRB5GRF4JEYJBCJUUXPQGFQBAUE","4","1","1","3","3","12051","2017-09-15 13:36:23","5308"
"A3H9XHNUS12SSA","caus_thomas_all_v2","3CPLWGV3MO0SEPPXNC48NZN21C09N6","2","1","1","3","1","37449","2017-09-15 13:36:23","5309"
"A3NQ6LME55Y8AD","caus_thomas_all_v2","37C0GNLMHF4WAUWM0BNT7KK6X7Q6DA","4","0","0","9","2","34334","2017-09-15 13:36:25","5310"
"A2PDRB9EI2J77Q","caus_thomas_all_v2","3Q5ZZ9ZEVOGOAV0HEK28TMS5QLI58N","8","2","2","9","2","15409","2017-09-15 13:36:30","5311"
"AS3M818NX9EAI","caus_thomas_all_v2","3FQ5JJ512LPCVL8OR9VXD81IC6CNKE","5","0","0","3","6","34038","2017-09-15 13:36:31","5312"
"A2VXM4EO7RLLWZ","caus_thomas_all_v2","3U5NZHP4LR3LWGJT135S45QLK48PH7","4","2","2","2","6","40996","2017-09-15 13:36:33","5313"
"A1POO4OIUNLJAM
A1POO4OIUNLJAM
","caus_thomas_all_v2","3P529IW9KYMBRZDPELOLK35OZFVFL2","4","0","0","9","3","51511","2017-09-15 13:36:35","5314"
"AHWF0QIK9VTDS","caus_thomas_all_v2","3R3YRB5GRF4JEYJBCJUUXPQGFQBAUE","4","2","2","1","4","12989","2017-09-15 13:36:37","5315"
"A3O2JUIF4DZQJU","caus_thomas_all_v2","3WJ1OXY92AHLG1CY9GTP1X8RIZJ8AW","2","0","0","5","9","82360","2017-09-15 13:36:40","5316"
"A3NQ6LME55Y8AD","caus_thomas_all_v2","37C0GNLMHF4WAUWM0BNT7KK6X7Q6DA","0","1","1","10","4","14597","2017-09-15 13:36:41","5317"
"A1KAEEF53CXL9O","caus_thomas_all_v2","3IXQG4FA2TZQDG00KMZZW4N8KNMB9J","3","0","0","3","2","36923","2017-09-15 13:36:41","5318"
"A1DBPM1UHEP4MU","caus_thomas_all_v2","3FE2ERCCZX9VOX5G5G0IOENMWQMPOV","7","0","0","1","8","12555","2017-09-15 13:36:42","5319"
"A3H9XHNUS12SSA","caus_thomas_all_v2","3CPLWGV3MO0SEPPXNC48NZN21C09N6","6","2","2","1","4","19875","2017-09-15 13:36:44","5320"
"A2PDRB9EI2J77Q","caus_thomas_all_v2","3Q5ZZ9ZEVOGOAV0HEK28TMS5QLI58N","8","3","3","8","1","14905","2017-09-15 13:36:45","5321"
"A3NQ6LME55Y8AD","caus_thomas_all_v2","37C0GNLMHF4WAUWM0BNT7KK6X7Q6DA","8","2","2","1","7","4522","2017-09-15 13:36:46","5322"
"A2VXM4EO7RLLWZ","caus_thomas_all_v2","3U5NZHP4LR3LWGJT135S45QLK48PH7","4","3","3","7","8","13886","2017-09-15 13:36:47","5323"
"AHWF0QIK9VTDS","caus_thomas_all_v2","3R3YRB5GRF4JEYJBCJUUXPQGFQBAUE","4","3","3","4","1","10482","2017-09-15 13:36:48","5324"
"A1DBPM1UHEP4MU","caus_thomas_all_v2","3FE2ERCCZX9VOX5G5G0IOENMWQMPOV","1","1","1","8","4","10153","2017-09-15 13:36:53","5325"
"A2PDRB9EI2J77Q","caus_thomas_all_v2","3Q5ZZ9ZEVOGOAV0HEK28TMS5QLI58N","0","4","4","1","10","10770","2017-09-15 13:36:57","5326"
"AHWF0QIK9VTDS","caus_thomas_all_v2","3R3YRB5GRF4JEYJBCJUUXPQGFQBAUE","0","4","4","10","10","9048","2017-09-15 13:36:58","5327"
"A1KAEEF53CXL9O","caus_thomas_all_v2","3IXQG4FA2TZQDG00KMZZW4N8KNMB9J","0","1","1","8","3","17900","2017-09-15 13:37:00","5328"
"AT116456PANMW","caus_thomas_all_v2","3X08E93BHVJXPLH7QOFF1EAEGL366I","8","0","0","8","10","26543","2017-09-15 13:37:00","5329"
"A3NQ6LME55Y8AD","caus_thomas_all_v2","37C0GNLMHF4WAUWM0BNT7KK6X7Q6DA","5","3","3","7","8","13361","2017-09-15 13:37:01","5330"
"A2VXM4EO7RLLWZ","caus_thomas_all_v2","3U5NZHP4LR3LWGJT135S45QLK48PH7","4","4","4","6","1","13654","2017-09-15 13:37:02","5331"
"A3O2JUIF4DZQJU","caus_thomas_all_v2","3WJ1OXY92AHLG1CY9GTP1X8RIZJ8AW","2","1","1","1","3","22216","2017-09-15 13:37:03","5332"
"A36XTKYLP4IRDN","caus_thomas_all_v2","3TU5ZICBRD2D3HJFYCQBRXNWMH58Q3","4","0","0","3","1","43250","2017-09-15 13:37:04","5333"
"A1DBPM1UHEP4MU","caus_thomas_all_v2","3FE2ERCCZX9VOX5G5G0IOENMWQMPOV","1","2","2","7","5","11094","2017-09-15 13:37:05","5334"
"AS3M818NX9EAI","caus_thomas_all_v2","3FQ5JJ512LPCVL8OR9VXD81IC6CNKE","4","1","1","8","3","32745","2017-09-15 13:37:05","5335"
"A3H9XHNUS12SSA","caus_thomas_all_v2","3CPLWGV3MO0SEPPXNC48NZN21C09N6","2","3","3","6","2","24008","2017-09-15 13:37:09","5336"
"A3NQ6LME55Y8AD","caus_thomas_all_v2","37C0GNLMHF4WAUWM0BNT7KK6X7Q6DA","8","4","4","3","10","7826","2017-09-15 13:37:10","5337"
"A1POO4OIUNLJAM
A1POO4OIUNLJAM
","caus_thomas_all_v2","3P529IW9KYMBRZDPELOLK35OZFVFL2","4","1","1","4","7","35900","2017-09-15 13:37:11","5338"
"A1KAEEF53CXL9O","caus_thomas_all_v2","3IXQG4FA2TZQDG00KMZZW4N8KNMB9J","0","2","2","10","6","14370","2017-09-15 13:37:16","5339"
"A1DBPM1UHEP4MU","caus_thomas_all_v2","3FE2ERCCZX9VOX5G5G0IOENMWQMPOV","6","3","3","5","6","9649","2017-09-15 13:37:16","5340"
"AS3M818NX9EAI","caus_thomas_all_v2","3FQ5JJ512LPCVL8OR9VXD81IC6CNKE","7","2","2","1","1","12103","2017-09-15 13:37:18","5341"
"A356EVHB3TU90R","caus_thomas_all_v2","3TMFV4NEP8FINEF1ALPHJM5IAIMW8V","3","0","0","8","6","22401","2017-09-15 13:37:22","5342"
"A1DBPM1UHEP4MU","caus_thomas_all_v2","3FE2ERCCZX9VOX5G5G0IOENMWQMPOV","8","4","4","3","2","5583","2017-09-15 13:37:22","5343"
"A3O2JUIF4DZQJU","caus_thomas_all_v2","3WJ1OXY92AHLG1CY9GTP1X8RIZJ8AW","2","2","2","10","1","18118","2017-09-15 13:37:23","5344"
"A36XTKYLP4IRDN","caus_thomas_all_v2","3TU5ZICBRD2D3HJFYCQBRXNWMH58Q3","8","1","1","9","10","19502","2017-09-15 13:37:25","5345"
"A1KAEEF53CXL9O","caus_thomas_all_v2","3IXQG4FA2TZQDG00KMZZW4N8KNMB9J","0","3","3","6","5","9845","2017-09-15 13:37:26","5346"
"A3H9XHNUS12SSA","caus_thomas_all_v2","3CPLWGV3MO0SEPPXNC48NZN21C09N6","7","4","4","5","9","21130","2017-09-15 13:37:31","5347"
"A356EVHB3TU90R","caus_thomas_all_v2","3TMFV4NEP8FINEF1ALPHJM5IAIMW8V","6","1","1","3","4","8424","2017-09-15 13:37:32","5348"
"A1POO4OIUNLJAM
A1POO4OIUNLJAM
","caus_thomas_all_v2","3P529IW9KYMBRZDPELOLK35OZFVFL2","1","2","2","8","2","19865","2017-09-15 13:37:32","5349"
"A3O2JUIF4DZQJU","caus_thomas_all_v2","3WJ1OXY92AHLG1CY9GTP1X8RIZJ8AW","2","3","3","7","7","10942","2017-09-15 13:37:34","5350"
"A4HNS81WU3KY1","caus_thomas_all_v2","32AT8R96GLANEU55TJGLIPKM1WHUST","7","0","0","1","2","135664","2017-09-15 13:37:36","5351"
"A2KOECHP94T0TI","caus_thomas_all_v2","3YWRV122CS05VAQWFLAG1YKLP2BU8U","4","0","0","4","4","19272","2017-09-15 13:37:36","5352"
"A1KAEEF53CXL9O","caus_thomas_all_v2","3IXQG4FA2TZQDG00KMZZW4N8KNMB9J","0","4","4","9","10","9993","2017-09-15 13:37:37","5353"
"A36XTKYLP4IRDN","caus_thomas_all_v2","3TU5ZICBRD2D3HJFYCQBRXNWMH58Q3","2","2","2","7","4","11795","2017-09-15 13:37:38","5354"
"A356EVHB3TU90R","caus_thomas_all_v2","3TMFV4NEP8FINEF1ALPHJM5IAIMW8V","7","2","2","2","3","6756","2017-09-15 13:37:40","5355"
"A3O2JUIF4DZQJU","caus_thomas_all_v2","3WJ1OXY92AHLG1CY9GTP1X8RIZJ8AW","2","4","4","9","2","7931","2017-09-15 13:37:43","5356"
"A2KOECHP94T0TI","caus_thomas_all_v2","3YWRV122CS05VAQWFLAG1YKLP2BU8U","3","1","1","7","6","8596","2017-09-15 13:37:45","5357"
"A2NGM5Q85UH4","caus_thomas_all_v2","3S06PH7KSR5138VPU5BCCOTPPWB1D8","3","0","0","8","6","30221","2017-09-15 13:37:46","5358"
"A4HNS81WU3KY1","caus_thomas_all_v2","32AT8R96GLANEU55TJGLIPKM1WHUST","7","1","1","6","5","9916","2017-09-15 13:37:47","5359"
"A23KAJRDVCVGOE","caus_thomas_all_v2","3OE22WJIGIPB1EQS1FRGNP5LJ8WUQ4","2","0","0","5","4","39947","2017-09-15 13:37:48","5360"
"A3UDXVVGJ88LS2","caus_thomas_all_v2","3RSDURM96AN3LKKS2PT5WTMKWTKYEV","1","0","0","2","7","39324","2017-09-15 13:37:48","5361"
"A356EVHB3TU90R","caus_thomas_all_v2","3TMFV4NEP8FINEF1ALPHJM5IAIMW8V","3","3","3","6","7","8115","2017-09-15 13:37:49","5362"
"AT116456PANMW","caus_thomas_all_v2","3X08E93BHVJXPLH7QOFF1EAEGL366I","1","1","1","7","1","47793","2017-09-15 13:37:49","5363"
"AS3M818NX9EAI","caus_thomas_all_v2","3FQ5JJ512LPCVL8OR9VXD81IC6CNKE","1","3","3","9","7","31426","2017-09-15 13:37:51","5364"
"A36XTKYLP4IRDN","caus_thomas_all_v2","3TU5ZICBRD2D3HJFYCQBRXNWMH58Q3","6","3","3","2","7","15255","2017-09-15 13:37:54","5365"
"AW5O1RK3W60FC","caus_thomas_all_v2","3QAVNHZ3EM5GV8WH352T62UX2ZILAV","8","0","0","3","2","113309","2017-09-15 13:37:54","5366"
"A1POO4OIUNLJAM
A1POO4OIUNLJAM
","caus_thomas_all_v2","3P529IW9KYMBRZDPELOLK35OZFVFL2","5","3","3","7","10","22124","2017-09-15 13:37:55","5367"
"A356EVHB3TU90R","caus_thomas_all_v2","3TMFV4NEP8FINEF1ALPHJM5IAIMW8V","6","4","4","1","2","5402","2017-09-15 13:37:55","5368"
"A23KAJRDVCVGOE","caus_thomas_all_v2","3OE22WJIGIPB1EQS1FRGNP5LJ8WUQ4","8","1","1","10","9","7250","2017-09-15 13:37:56","5369"
"A2KOECHP94T0TI","caus_thomas_all_v2","3YWRV122CS05VAQWFLAG1YKLP2BU8U","4","2","2","3","3","9560","2017-09-15 13:37:56","5370"
"A4HNS81WU3KY1","caus_thomas_all_v2","32AT8R96GLANEU55TJGLIPKM1WHUST","7","2","2","3","8","8971","2017-09-15 13:37:57","5371"
"A3TK7HVFEKB00R","caus_thomas_all_v2","3R3YRB5GRF4JEYJBCJUUXPQGFQBUAY","0","0","0","6","1","22840","2017-09-15 13:38:02","5372"
"A2KOECHP94T0TI","caus_thomas_all_v2","3YWRV122CS05VAQWFLAG1YKLP2BU8U","4","3","3","2","5","5092","2017-09-15 13:38:02","5373"
"A4HNS81WU3KY1","caus_thomas_all_v2","32AT8R96GLANEU55TJGLIPKM1WHUST","0","3","3","10","3","5691","2017-09-15 13:38:03","5374"
"AS3M818NX9EAI","caus_thomas_all_v2","3FQ5JJ512LPCVL8OR9VXD81IC6CNKE","8","4","4","7","10","12381","2017-09-15 13:38:04","5375"
"A23KAJRDVCVGOE","caus_thomas_all_v2","3OE22WJIGIPB1EQS1FRGNP5LJ8WUQ4","5","2","2","9","8","7574","2017-09-15 13:38:04","5376"
"A30A30V45Y4CUYTCC","caus_thomas_all_v2","3QECW5O0KH278FS5HID3KIOS4Y3T50","4","0","0","1","6","35270","2017-09-15 13:38:05","5377"
"A2KOECHP94T0TI","caus_thomas_all_v2","3YWRV122CS05VAQWFLAG1YKLP2BU8U","3","4","4","8","2","2958","2017-09-15 13:38:06","5378"
"A1POO4OIUNLJAM
A1POO4OIUNLJAM
","caus_thomas_all_v2","3P529IW9KYMBRZDPELOLK35OZFVFL2","2","4","4","3","6","11054","2017-09-15 13:38:07","5379"
"AFWEAFM428F6D","caus_thomas_all_v2","3X31TUMD7XNK1KJH7M90V11UY5D1LO","3","0","0","10","4","47392","2017-09-15 13:38:08","5380"
"A36XTKYLP4IRDN","caus_thomas_all_v2","3TU5ZICBRD2D3HJFYCQBRXNWMH58Q3","2","4","4","4","2","13488","2017-09-15 13:38:08","5381"
"AT116456PANMW","caus_thomas_all_v2","3X08E93BHVJXPLH7QOFF1EAEGL366I","4","2","2","1","2","18641","2017-09-15 13:38:09","5382"
"A23KAJRDVCVGOE","caus_thomas_all_v2","3OE22WJIGIPB1EQS1FRGNP5LJ8WUQ4","1","3","3","3","5","3268","2017-09-15 13:38:09","5383"
" AQI1MLS0U7O8G","caus_thomas_all_v2","3FE2ERCCZX9VOX5G5G0IOENMWQNOPV","4","0","0","3","4","73850","2017-09-15 13:38:09","5384"
"A4HNS81WU3KY1","caus_thomas_all_v2","32AT8R96GLANEU55TJGLIPKM1WHUST","8","4","4","2","10","6144","2017-09-15 13:38:10","5385"
"A2NGM5Q85UH4","caus_thomas_all_v2","3S06PH7KSR5138VPU5BCCOTPPWB1D8","3","1","1","7","5","23666","2017-09-15 13:38:11","5386"
"A23KAJRDVCVGOE","caus_thomas_all_v2","3OE22WJIGIPB1EQS1FRGNP5LJ8WUQ4","0","4","4","2","10","2548","2017-09-15 13:38:12","5387"
"A3UDXVVGJ88LS2","caus_thomas_all_v2","3RSDURM96AN3LKKS2PT5WTMKWTKYEV","0","1","1","8","4","23207","2017-09-15 13:38:13","5388"
"AT116456PANMW","caus_thomas_all_v2","3X08E93BHVJXPLH7QOFF1EAEGL366I","5","3","3","3","6","7777","2017-09-15 13:38:17","5389"
"A3M0YHO3OUHJG9","caus_thomas_all_v2","3K772S5NP8CHZPU3SPPHATRH6X7HEF","8","0","0","6","10","53111","2017-09-15 13:38:18","5390"
"A30A30V45Y4CUYTCC","caus_thomas_all_v2","3QECW5O0KH278FS5HID3KIOS4Y3T50","4","1","1","7","7","11997","2017-09-15 13:38:18","5391"
"A3TK7HVFEKB00R","caus_thomas_all_v2","3R3YRB5GRF4JEYJBCJUUXPQGFQBUAY","0","1","1","10","4","15433","2017-09-15 13:38:18","5392"
"A5TIG718GB7IM","caus_thomas_all_v2","3ZR9AIQJUBAOWNRE5B6JVFG97RC40V","0","0","0","5","4","32989","2017-09-15 13:38:24","5393"
"A3GEHH49HNJM57","caus_thomas_all_v2","3TR2532VIPV9DGWEA794AIFJ2RNJ61","6","0","0","5","4","75989","2017-09-15 13:38:25","5394"
" AQI1MLS0U7O8G","caus_thomas_all_v2","3FE2ERCCZX9VOX5G5G0IOENMWQNOPV","4","1","1","6","6","16434","2017-09-15 13:38:27","5395"
"AFWEAFM428F6D","caus_thomas_all_v2","3X31TUMD7XNK1KJH7M90V11UY5D1LO","5","1","1","7","6","18497","2017-09-15 13:38:28","5396"
"A1G4G1101NIK0E","caus_thomas_all_v2","3WAKVUDHUWH1VWLD5GIANYOQEI5U77","3","0","0","4","5","58619","2017-09-15 13:38:28","5397"
"AT116456PANMW","caus_thomas_all_v2","3X08E93BHVJXPLH7QOFF1EAEGL366I","4","4","4","4","5","11506","2017-09-15 13:38:30","5398"
"A2YIMAQC600PF8","caus_thomas_all_v2","3QL2OFSM96JUCNW0ZWEZPPOA7X4CNR","0","0","0","5","2","26236","2017-09-15 13:38:30","5399"
"A3UDXVVGJ88LS2","caus_thomas_all_v2","3RSDURM96AN3LKKS2PT5WTMKWTKYEV","1","2","2","4","6","17240","2017-09-15 13:38:31","5400"
"A12WU94VZJCQSI","caus_thomas_all_v2","33PPUNGG386SZEZ2KHFO97U5HCERZS","4","0","0","5","9","49943","2017-09-15 13:38:32","5401"
"AFWEAFM428F6D","caus_thomas_all_v2","3X31TUMD7XNK1KJH7M90V11UY5D1LO","3","2","2","9","2","4436","2017-09-15 13:38:33","5402"
"A3TK7HVFEKB00R","caus_thomas_all_v2","3R3YRB5GRF4JEYJBCJUUXPQGFQBUAY","0","2","2","1","3","14329","2017-09-15 13:38:34","5403"
"AFWEAFM428F6D","caus_thomas_all_v2","3X31TUMD7XNK1KJH7M90V11UY5D1LO","2","3","3","5","1","3294","2017-09-15 13:38:37","5404"
" AQI1MLS0U7O8G","caus_thomas_all_v2","3FE2ERCCZX9VOX5G5G0IOENMWQNOPV","4","2","2","5","2","12115","2017-09-15 13:38:40","5405"
"A3M0YHO3OUHJG9","caus_thomas_all_v2","3K772S5NP8CHZPU3SPPHATRH6X7HEF","6","1","1","1","1","21674","2017-09-15 13:38:41","5406"
"A3TK7HVFEKB00R","caus_thomas_all_v2","3R3YRB5GRF4JEYJBCJUUXPQGFQBUAY","0","3","3","7","2","6827","2017-09-15 13:38:42","5407"
"A5TIG718GB7IM","caus_thomas_all_v2","3ZR9AIQJUBAOWNRE5B6JVFG97RC40V","8","1","1","9","10","17310","2017-09-15 13:38:43","5408"
"AFWEAFM428F6D","caus_thomas_all_v2","3X31TUMD7XNK1KJH7M90V11UY5D1LO","7","4","4","2","5","4831","2017-09-15 13:38:43","5409"
"A3TK7HVFEKB00R","caus_thomas_all_v2","3R3YRB5GRF4JEYJBCJUUXPQGFQBUAY","0","4","4","3","6","2060","2017-09-15 13:38:45","5410"
"A3GEHH49HNJM57","caus_thomas_all_v2","3TR2532VIPV9DGWEA794AIFJ2RNJ61","4","1","1","8","6","19228","2017-09-15 13:38:46","5411"
"A30A30V45Y4CUYTCC","caus_thomas_all_v2","3QECW5O0KH278FS5HID3KIOS4Y3T50","5","2","2","9","5","26968","2017-09-15 13:38:46","5412"
"A3UDXVVGJ88LS2","caus_thomas_all_v2","3RSDURM96AN3LKKS2PT5WTMKWTKYEV","1","3","3","3","5","14793","2017-09-15 13:38:47","5413"
"A1G4G1101NIK0E","caus_thomas_all_v2","3WAKVUDHUWH1VWLD5GIANYOQEI5U77","4","1","1","10","10","19471","2017-09-15 13:38:49","5414"
"A12WU94VZJCQSI","caus_thomas_all_v2","33PPUNGG386SZEZ2KHFO97U5HCERZS","4","1","1","10","6","17477","2017-09-15 13:38:51","5415"
"A2YIMAQC600PF8","caus_thomas_all_v2","3QL2OFSM96JUCNW0ZWEZPPOA7X4CNR","0","1","1","2","3","20036","2017-09-15 13:38:51","5416"
" AQI1MLS0U7O8G","caus_thomas_all_v2","3FE2ERCCZX9VOX5G5G0IOENMWQNOPV","4","3","3","8","1","12179","2017-09-15 13:38:53","5417"
"A2NGM5Q85UH4","caus_thomas_all_v2","3S06PH7KSR5138VPU5BCCOTPPWB1D8","4","2","2","1","8","41586","2017-09-15 13:38:54","5418"
"A3M0YHO3OUHJG9","caus_thomas_all_v2","3K772S5NP8CHZPU3SPPHATRH6X7HEF","6","2","2","5","7","14847","2017-09-15 13:38:56","5419"
"A3GEHH49HNJM57","caus_thomas_all_v2","3TR2532VIPV9DGWEA794AIFJ2RNJ61","7","2","2","10","1","14949","2017-09-15 13:39:01","5420"
" AQI1MLS0U7O8G","caus_thomas_all_v2","3FE2ERCCZX9VOX5G5G0IOENMWQNOPV","4","4","4","4","5","8967","2017-09-15 13:39:03","5421"
"A12WU94VZJCQSI","caus_thomas_all_v2","33PPUNGG386SZEZ2KHFO97U5HCERZS","4","2","2","3","2","11739","2017-09-15 13:39:03","5422"
"A3UDXVVGJ88LS2","caus_thomas_all_v2","3RSDURM96AN3LKKS2PT5WTMKWTKYEV","1","4","4","9","9","15785","2017-09-15 13:39:04","5423"
"A5TIG718GB7IM","caus_thomas_all_v2","3ZR9AIQJUBAOWNRE5B6JVFG97RC40V","1","2","2","4","8","19923","2017-09-15 13:39:04","5424"
"A2GDEY3ZE51YY1","caus_thomas_all_v2","3CCZ6YKWR7KOO0JRJC8MTINGAR159D","5","0","0","5","8","14969","2017-09-15 13:39:04","5425"
"A3M0YHO3OUHJG9","caus_thomas_all_v2","3K772S5NP8CHZPU3SPPHATRH6X7HEF","6","3","3","10","6","9401","2017-09-15 13:39:07","5426"
"AW5O1RK3W60FC","caus_thomas_all_v2","3QAVNHZ3EM5GV8WH352T62UX2ZILAV","8","1","1","9","1","72328","2017-09-15 13:39:07","5427"
"A2YIMAQC600PF8","caus_thomas_all_v2","3QL2OFSM96JUCNW0ZWEZPPOA7X4CNR","0","2","2","7","5","16147","2017-09-15 13:39:08","5428"
"A2NGM5Q85UH4","caus_thomas_all_v2","3S06PH7KSR5138VPU5BCCOTPPWB1D8","4","3","3","3","3","13346","2017-09-15 13:39:08","5429"
"A1G4G1101NIK0E","caus_thomas_all_v2","3WAKVUDHUWH1VWLD5GIANYOQEI5U77","1","2","2","8","1","21108","2017-09-15 13:39:11","5430"
"A12WU94VZJCQSI","caus_thomas_all_v2","33PPUNGG386SZEZ2KHFO97U5HCERZS","4","3","3","6","10","8110","2017-09-15 13:39:13","5431"
"A2GDEY3ZE51YY1","caus_thomas_all_v2","3CCZ6YKWR7KOO0JRJC8MTINGAR159D","5","1","1","3","6","8312","2017-09-15 13:39:13","5432"
"A3GEHH49HNJM57","caus_thomas_all_v2","3TR2532VIPV9DGWEA794AIFJ2RNJ61","4","3","3","6","3","12129","2017-09-15 13:39:15","5433"
"A30A30V45Y4CUYTCC","caus_thomas_all_v2","3QECW5O0KH278FS5HID3KIOS4Y3T50","3","3","3","6","10","28081","2017-09-15 13:39:15","5434"
"A2YIMAQC600PF8","caus_thomas_all_v2","3QL2OFSM96JUCNW0ZWEZPPOA7X4CNR","0","3","3","10","4","7203","2017-09-15 13:39:16","5435"
"A5TIG718GB7IM","caus_thomas_all_v2","3ZR9AIQJUBAOWNRE5B6JVFG97RC40V","0","3","3","10","3","12808","2017-09-15 13:39:17","5436"
"A3M0YHO3OUHJG9","caus_thomas_all_v2","3K772S5NP8CHZPU3SPPHATRH6X7HEF","6","4","4","3","8","10461","2017-09-15 13:39:18","5437"
"A12WU94VZJCQSI","caus_thomas_all_v2","33PPUNGG386SZEZ2KHFO97U5HCERZS","4","4","4","9","1","4936","2017-09-15 13:39:19","5438"
"A2GDEY3ZE51YY1","caus_thomas_all_v2","3CCZ6YKWR7KOO0JRJC8MTINGAR159D","4","2","2","7","7","4804","2017-09-15 13:39:19","5439"
"A2YIMAQC600PF8","caus_thomas_all_v2","3QL2OFSM96JUCNW0ZWEZPPOA7X4CNR","0","4","4","8","9","6442","2017-09-15 13:39:24","5440"
"A2GDEY3ZE51YY1","caus_thomas_all_v2","3CCZ6YKWR7KOO0JRJC8MTINGAR159D","1","3","3","10","9","4490","2017-09-15 13:39:25","5441"
"A1G4G1101NIK0E","caus_thomas_all_v2","3WAKVUDHUWH1VWLD5GIANYOQEI5U77","1","3","3","7","3","13357","2017-09-15 13:39:25","5442"
"A2NGM5Q85UH4","caus_thomas_all_v2","3S06PH7KSR5138VPU5BCCOTPPWB1D8","4","4","4","5","7","17058","2017-09-15 13:39:26","5443"
"A3GEHH49HNJM57","caus_thomas_all_v2","3TR2532VIPV9DGWEA794AIFJ2RNJ61","2","4","4","3","7","11205","2017-09-15 13:39:27","5444"
"A30A30V45Y4CUYTCC","caus_thomas_all_v2","3QECW5O0KH278FS5HID3KIOS4Y3T50","4","4","4","5","1","11294","2017-09-15 13:39:28","5445"
"A5TIG718GB7IM","caus_thomas_all_v2","3ZR9AIQJUBAOWNRE5B6JVFG97RC40V","7","4","4","1","9","10570","2017-09-15 13:39:29","5446"
"A2GDEY3ZE51YY1","caus_thomas_all_v2","3CCZ6YKWR7KOO0JRJC8MTINGAR159D","2","4","4","6","5","5274","2017-09-15 13:39:31","5447"
"AW5O1RK3W60FC","caus_thomas_all_v2","3QAVNHZ3EM5GV8WH352T62UX2ZILAV","8","2","2","8","7","23119","2017-09-15 13:39:32","5448"
"AE3ZOTZGH91EN","caus_thomas_all_v2","3U84XHCDICELY8X495JB1EJVPYV4ZN","4","0","0","4","5","31869","2017-09-15 13:39:34","5449"
"A1G4G1101NIK0E","caus_thomas_all_v2","3WAKVUDHUWH1VWLD5GIANYOQEI5U77","1","4","4","5","2","10019","2017-09-15 13:39:36","5450"
"AE3ZOTZGH91EN","caus_thomas_all_v2","3U84XHCDICELY8X495JB1EJVPYV4ZN","6","1","1","1","7","7189","2017-09-15 13:39:42","5451"
" A2DC7EBSBUVUQ","caus_thomas_all_v2","3DH6GAKTYYQ1WFBOYC7IH3N2KZTZY2","8","0","0","10","1","95876","2017-09-15 13:39:47","5452"
"AE3ZOTZGH91EN","caus_thomas_all_v2","3U84XHCDICELY8X495JB1EJVPYV4ZN","5","2","2","7","3","3928","2017-09-15 13:39:47","5453"
"APQM2KTVCKDDV","caus_thomas_all_v2","37UEWGM5HT9V4IEUC66WHDAT4X21RE","4","0","0","4","6","35002","2017-09-15 13:39:48","5454"
"AY4E4CDN0J6JL","caus_thomas_all_v2","3VSOLARPKBALALWN5TKTELPWWVA39L","0","0","0","5","4","24774","2017-09-15 13:39:50","5455"
"AE3ZOTZGH91EN","caus_thomas_all_v2","3U84XHCDICELY8X495JB1EJVPYV4ZN","1","3","3","9","2","3136","2017-09-15 13:39:51","5456"
"A170EDGL8ZWMSL","caus_thomas_all_v2","30LSNF239UWP04T75NC184J797X2IS","4","0","0","4","3","65169","2017-09-15 13:39:53","5457"
"AE3ZOTZGH91EN","caus_thomas_all_v2","3U84XHCDICELY8X495JB1EJVPYV4ZN","2","4","4","2","1","2766","2017-09-15 13:39:55","5458"
"AW5O1RK3W60FC","caus_thomas_all_v2","3QAVNHZ3EM5GV8WH352T62UX2ZILAV","8","3","3","5","5","24967","2017-09-15 13:39:58","5459"
"APQM2KTVCKDDV","caus_thomas_all_v2","37UEWGM5HT9V4IEUC66WHDAT4X21RE","4","1","1","1","4","21639","2017-09-15 13:40:11","5460"
"AY4E4CDN0J6JL","caus_thomas_all_v2","3VSOLARPKBALALWN5TKTELPWWVA39L","0","1","1","7","10","25240","2017-09-15 13:40:16","5461"
" A2DC7EBSBUVUQ","caus_thomas_all_v2","3DH6GAKTYYQ1WFBOYC7IH3N2KZTZY2","8","1","1","3","7","40581","2017-09-15 13:40:29","5462"
"APXL8UGODKH0E","caus_thomas_all_v2","3C44YUNSI1Q4K0ERF7M2DKBNSCHDPO","0","0","0","10","3","42510","2017-09-15 13:40:30","5463"
"AW5O1RK3W60FC","caus_thomas_all_v2","3QAVNHZ3EM5GV8WH352T62UX2ZILAV","8","4","4","2","3","33109","2017-09-15 13:40:32","5464"
"AEF74ZYJTTEIA","caus_thomas_all_v2","3NPFYT4IZC5C5TQ93OXRDI0N734XG4","6","0","0","2","9","13218","2017-09-15 13:40:45","5465"
"A170EDGL8ZWMSL","caus_thomas_all_v2","30LSNF239UWP04T75NC184J797X2IS","4","1","1","5","1","55905","2017-09-15 13:40:50","5466"
"AEF74ZYJTTEIA","caus_thomas_all_v2","3NPFYT4IZC5C5TQ93OXRDI0N734XG4","0","1","1","10","4","6517","2017-09-15 13:40:52","5467"
"APXL8UGODKH0E","caus_thomas_all_v2","3C44YUNSI1Q4K0ERF7M2DKBNSCHDPO","4","1","1","8","8","25215","2017-09-15 13:40:56","5468"
"A2PVNRDR8668JX","caus_thomas_all_v2","3FFJ6VRIL1PI4UQTQ08NPGQSC9DI0O","7","0","0","7","1","64990","2017-09-15 13:40:59","5469"
"AEF74ZYJTTEIA","caus_thomas_all_v2","3NPFYT4IZC5C5TQ93OXRDI0N734XG4","6","2","2","8","8","5848","2017-09-15 13:40:59","5470"
"A3QUGJF2AN8TF2","caus_thomas_all_v2","30ZX6P7VF8WLVFDDN5X1K5Y7MMLJ2K","8","0","0","9","10","36532","2017-09-15 13:41:00","5471"
"AY4E4CDN0J6JL","caus_thomas_all_v2","3VSOLARPKBALALWN5TKTELPWWVA39L","0","2","2","9","2","43877","2017-09-15 13:41:01","5472"
"AEF74ZYJTTEIA","caus_thomas_all_v2","3NPFYT4IZC5C5TQ93OXRDI0N734XG4","6","3","3","1","2","2530","2017-09-15 13:41:03","5473"
"A170EDGL8ZWMSL","caus_thomas_all_v2","30LSNF239UWP04T75NC184J797X2IS","4","2","2","2","2","14444","2017-09-15 13:41:05","5474"
"AEF74ZYJTTEIA","caus_thomas_all_v2","3NPFYT4IZC5C5TQ93OXRDI0N734XG4","8","4","4","7","10","3818","2017-09-15 13:41:08","5475"
"APQM2KTVCKDDV","caus_thomas_all_v2","37UEWGM5HT9V4IEUC66WHDAT4X21RE","4","2","2","7","8","56767","2017-09-15 13:41:08","5476"
"A2QPQ7UNBBQYIE","caus_thomas_all_v2","32Q90QCQ1SM81FVBYASENL79YECEKH","6","0","0","2","9","37669","2017-09-15 13:41:09","5477"
"APXL8UGODKH0E","caus_thomas_all_v2","3C44YUNSI1Q4K0ERF7M2DKBNSCHDPO","1","2","2","9","1","12449","2017-09-15 13:41:10","5478"
"AY4E4CDN0J6JL","caus_thomas_all_v2","3VSOLARPKBALALWN5TKTELPWWVA39L","0","3","3","4","9","8943","2017-09-15 13:41:11","5479"
"A320I54BHPIZKX","caus_thomas_all_v2","36ZN444YTRZ37BICSLAYFHMAACTOIK","0","0","0","10","10","36499","2017-09-15 13:41:11","5480"
"A3QUGJF2AN8TF2","caus_thomas_all_v2","30ZX6P7VF8WLVFDDN5X1K5Y7MMLJ2K","5","1","1","8","2","13712","2017-09-15 13:41:15","5481"
"AY4E4CDN0J6JL","caus_thomas_all_v2","3VSOLARPKBALALWN5TKTELPWWVA39L","0","4","4","3","6","4838","2017-09-15 13:41:17","5482"
"A170EDGL8ZWMSL","caus_thomas_all_v2","30LSNF239UWP04T75NC184J797X2IS","4","3","3","7","8","12554","2017-09-15 13:41:19","5483"
"A1AYFPD1RFW8P5","caus_thomas_all_v2","34V1S5K3GS2K74J5OVIRLO1G6MC69U","0","0","0","10","5","41603","2017-09-15 13:41:19","5484"
"A1BCQU4CUONYIX
A1BCQU4CUONYIX
","caus_thomas_all_v2","333U7HK6I9G8YPBTKUHIGOPBJDBDJO","7","0","0","1","3","50368","2017-09-15 13:41:20","5485"
" A2DC7EBSBUVUQ","caus_thomas_all_v2","3DH6GAKTYYQ1WFBOYC7IH3N2KZTZY2","5","2","2","2","2","51875","2017-09-15 13:41:22","5486"
"APXL8UGODKH0E","caus_thomas_all_v2","3C44YUNSI1Q4K0ERF7M2DKBNSCHDPO","6","3","3","1","2","12721","2017-09-15 13:41:23","5487"
"A3QUGJF2AN8TF2","caus_thomas_all_v2","30ZX6P7VF8WLVFDDN5X1K5Y7MMLJ2K","6","2","2","7","5","8525","2017-09-15 13:41:25","5488"
"A170EDGL8ZWMSL","caus_thomas_all_v2","30LSNF239UWP04T75NC184J797X2IS","4","4","4","8","10","6877","2017-09-15 13:41:26","5489"
"A2QPQ7UNBBQYIE","caus_thomas_all_v2","32Q90QCQ1SM81FVBYASENL79YECEKH","6","1","1","1","2","17237","2017-09-15 13:41:28","5490"
"A320I54BHPIZKX","caus_thomas_all_v2","36ZN444YTRZ37BICSLAYFHMAACTOIK","4","1","1","1","2","15428","2017-09-15 13:41:28","5491"
"APQM2KTVCKDDV","caus_thomas_all_v2","37UEWGM5HT9V4IEUC66WHDAT4X21RE","4","3","3","5","2","22363","2017-09-15 13:41:32","5492"
"APXL8UGODKH0E","caus_thomas_all_v2","3C44YUNSI1Q4K0ERF7M2DKBNSCHDPO","8","4","4","2","5","7870","2017-09-15 13:41:32","5493"
"A1BCQU4CUONYIX
A1BCQU4CUONYIX
","caus_thomas_all_v2","333U7HK6I9G8YPBTKUHIGOPBJDBDJO","6","1","1","10","10","11739","2017-09-15 13:41:33","5494"
"A3QUGJF2AN8TF2","caus_thomas_all_v2","30ZX6P7VF8WLVFDDN5X1K5Y7MMLJ2K","0","3","3","2","4","7528","2017-09-15 13:41:33","5495"
"A320I54BHPIZKX","caus_thomas_all_v2","36ZN444YTRZ37BICSLAYFHMAACTOIK","4","2","2","5","5","4983","2017-09-15 13:41:34","5496"
" A2DC7EBSBUVUQ","caus_thomas_all_v2","3DH6GAKTYYQ1WFBOYC7IH3N2KZTZY2","5","3","3","7","10","17563","2017-09-15 13:41:40","5497"
"A1AYFPD1RFW8P5","caus_thomas_all_v2","34V1S5K3GS2K74J5OVIRLO1G6MC69U","4","1","1","8","7","20082","2017-09-15 13:41:40","5498"
"A3QUGJF2AN8TF2","caus_thomas_all_v2","30ZX6P7VF8WLVFDDN5X1K5Y7MMLJ2K","4","4","4","5","8","7452","2017-09-15 13:41:42","5499"
"A1BCQU4CUONYIX
A1BCQU4CUONYIX
","caus_thomas_all_v2","333U7HK6I9G8YPBTKUHIGOPBJDBDJO","3","2","2","3","6","7960","2017-09-15 13:41:42","5500"
"A2QPQ7UNBBQYIE","caus_thomas_all_v2","32Q90QCQ1SM81FVBYASENL79YECEKH","5","2","2","6","6","14307","2017-09-15 13:41:43","5501"
"APQM2KTVCKDDV","caus_thomas_all_v2","37UEWGM5HT9V4IEUC66WHDAT4X21RE","4","4","4","2","3","11329","2017-09-15 13:41:44","5502"
"A2PVNRDR8668JX","caus_thomas_all_v2","3FFJ6VRIL1PI4UQTQ08NPGQSC9DI0O","4","1","1","3","7","50572","2017-09-15 13:41:50","5503"
"A320I54BHPIZKX","caus_thomas_all_v2","36ZN444YTRZ37BICSLAYFHMAACTOIK","4","3","3","9","8","16815","2017-09-15 13:41:52","5504"
"A1BKYMEF2K879Y","caus_thomas_all_v2","3J88R45B2GZII6J867NE7REF8USXP9","2","0","0","6","5","167784","2017-09-15 13:41:53","5505"
"A1BCQU4CUONYIX
A1BCQU4CUONYIX
","caus_thomas_all_v2","333U7HK6I9G8YPBTKUHIGOPBJDBDJO","7","3","3","4","9","10751","2017-09-15 13:41:53","5506"
"A2QPQ7UNBBQYIE","caus_thomas_all_v2","32Q90QCQ1SM81FVBYASENL79YECEKH","6","3","3","4","10","15803","2017-09-15 13:42:00","5507"
"A320I54BHPIZKX","caus_thomas_all_v2","36ZN444YTRZ37BICSLAYFHMAACTOIK","4","4","4","7","9","9279","2017-09-15 13:42:02","5508"
"A1BCQU4CUONYIX
A1BCQU4CUONYIX
","caus_thomas_all_v2","333U7HK6I9G8YPBTKUHIGOPBJDBDJO","5","4","4","7","1","8259","2017-09-15 13:42:03","5509"
" A2DC7EBSBUVUQ","caus_thomas_all_v2","3DH6GAKTYYQ1WFBOYC7IH3N2KZTZY2","0","4","4","9","4","28157","2017-09-15 13:42:09","5510"
"A2QPQ7UNBBQYIE","caus_thomas_all_v2","32Q90QCQ1SM81FVBYASENL79YECEKH","4","4","4","9","8","8854","2017-09-15 13:42:10","5511"
"A1BKYMEF2K879Y","caus_thomas_all_v2","3J88R45B2GZII6J867NE7REF8USXP9","5","1","1","3","2","21141","2017-09-15 13:42:15","5512"
"A2PVNRDR8668JX","caus_thomas_all_v2","3FFJ6VRIL1PI4UQTQ08NPGQSC9DI0O","1","2","2","4","8","25004","2017-09-15 13:42:16","5513"
"ADC6173WB7JAH","caus_thomas_all_v2","3YDTZAI2WXHO3CCW1UAJ9KZJCJJ41Z","0","0","0","2","4","40349","2017-09-15 13:42:21","5514"
"A1AYFPD1RFW8P5","caus_thomas_all_v2","34V1S5K3GS2K74J5OVIRLO1G6MC69U","5","2","2","5","10","41512","2017-09-15 13:42:23","5515"
"A1BKYMEF2K879Y","caus_thomas_all_v2","3J88R45B2GZII6J867NE7REF8USXP9","6","2","2","9","7","10392","2017-09-15 13:42:27","5516"
"A2PVNRDR8668JX","caus_thomas_all_v2","3FFJ6VRIL1PI4UQTQ08NPGQSC9DI0O","1","3","3","10","4","12657","2017-09-15 13:42:30","5517"
"A1BKYMEF2K879Y","caus_thomas_all_v2","3J88R45B2GZII6J867NE7REF8USXP9","5","3","3","7","6","13007","2017-09-15 13:42:41","5518"
"A1AYFPD1RFW8P5","caus_thomas_all_v2","34V1S5K3GS2K74J5OVIRLO1G6MC69U","8","3","3","2","3","17599","2017-09-15 13:42:41","5519"
"ADC6173WB7JAH","caus_thomas_all_v2","3YDTZAI2WXHO3CCW1UAJ9KZJCJJ41Z","0","1","1","10","2","21360","2017-09-15 13:42:43","5520"
"A1BKYMEF2K879Y","caus_thomas_all_v2","3J88R45B2GZII6J867NE7REF8USXP9","4","4","4","1","1","9261","2017-09-15 13:42:51","5521"
"A2PVNRDR8668JX","caus_thomas_all_v2","3FFJ6VRIL1PI4UQTQ08NPGQSC9DI0O","7","4","4","8","9","19780","2017-09-15 13:42:51","5522"
"ADC6173WB7JAH","caus_thomas_all_v2","3YDTZAI2WXHO3CCW1UAJ9KZJCJJ41Z","0","2","2","6","7","9782","2017-09-15 13:42:54","5523"
"A1AYFPD1RFW8P5","caus_thomas_all_v2","34V1S5K3GS2K74J5OVIRLO1G6MC69U","2","4","4","9","9","16800","2017-09-15 13:42:59","5524"
"ADC6173WB7JAH","caus_thomas_all_v2","3YDTZAI2WXHO3CCW1UAJ9KZJCJJ41Z","8","3","3","1","10","15449","2017-09-15 13:43:10","5525"
"AAXVPAK0I9PT6","caus_thomas_all_v2","3JAOYWH7VI52QPMCBZOTA7JDWH29L6","6","0","0","1","3","24901","2017-09-15 13:43:12","5526"
"ADC6173WB7JAH","caus_thomas_all_v2","3YDTZAI2WXHO3CCW1UAJ9KZJCJJ41Z","0","4","4","9","6","10683","2017-09-15 13:43:22","5527"
"A2S5GPVIUV8RJI","caus_thomas_all_v2","38JBBYETQOBNND68DI5YG4ID1SM4EH","7","0","0","8","7","86951","2017-09-15 13:43:24","5528"
"AAXVPAK0I9PT6","caus_thomas_all_v2","3JAOYWH7VI52QPMCBZOTA7JDWH29L6","6","1","1","9","10","17276","2017-09-15 13:43:31","5529"
"A24J49GQTKPH0T","caus_thomas_all_v2","3OXV7EAXLERYS2UP7MHHUBYU6U336B","1","0","0","10","9","28681","2017-09-15 13:43:38","5530"
"AAXVPAK0I9PT6","caus_thomas_all_v2","3JAOYWH7VI52QPMCBZOTA7JDWH29L6","4","2","2","8","1","7960","2017-09-15 13:43:40","5531"
"A1L8HH8Y5LPSOH
","caus_thomas_all_v2","31T4R4OBOSH5924DJPXATS2K7I07CC","8","0","0","4","9","34248","2017-09-15 13:43:48","5532"
"AAXVPAK0I9PT6","caus_thomas_all_v2","3JAOYWH7VI52QPMCBZOTA7JDWH29L6","5","3","3","4","5","12322","2017-09-15 13:43:53","5533"
"A1L8HH8Y5LPSOH
","caus_thomas_all_v2","31T4R4OBOSH5924DJPXATS2K7I07CC","8","1","1","3","6","9613","2017-09-15 13:43:59","5534"
"AAXVPAK0I9PT6","caus_thomas_all_v2","3JAOYWH7VI52QPMCBZOTA7JDWH29L6","5","4","4","7","6","7539","2017-09-15 13:44:02","5535"
"A24J49GQTKPH0T","caus_thomas_all_v2","3OXV7EAXLERYS2UP7MHHUBYU6U336B","3","1","1","3","6","25615","2017-09-15 13:44:05","5536"
"A3JTMXHPNCUFNX","caus_thomas_all_v2","3QAPZX2QN4EET9CR1XNV20JBNDF20W","7","0","0","8","5","384975","2017-09-15 13:44:07","5537"
"A1L8HH8Y5LPSOH
","caus_thomas_all_v2","31T4R4OBOSH5924DJPXATS2K7I07CC","1","2","2","6","3","10684","2017-09-15 13:44:10","5538"
"A2S5GPVIUV8RJI","caus_thomas_all_v2","38JBBYETQOBNND68DI5YG4ID1SM4EH","1","1","1","4","8","50267","2017-09-15 13:44:16","5539"
"A24J49GQTKPH0T","caus_thomas_all_v2","3OXV7EAXLERYS2UP7MHHUBYU6U336B","0","2","2","1","8","10536","2017-09-15 13:44:16","5540"
"A29U9X7J8YVB4V
","caus_thomas_all_v2","3WLEIWSYHOIP49INZ5UG8SIS9UJ2H0","1","0","0","3","6","48422","2017-09-15 13:44:18","5541"
"A24J49GQTKPH0T","caus_thomas_all_v2","3OXV7EAXLERYS2UP7MHHUBYU6U336B","2","3","3","4","1","4905","2017-09-15 13:44:22","5542"
"A3JTMXHPNCUFNX","caus_thomas_all_v2","3QAPZX2QN4EET9CR1XNV20JBNDF20W","6","1","1","7","4","14258","2017-09-15 13:44:23","5543"
"A2S5GPVIUV8RJI","caus_thomas_all_v2","38JBBYETQOBNND68DI5YG4ID1SM4EH","1","2","2","2","3","8493","2017-09-15 13:44:25","5544"
"A1L8HH8Y5LPSOH
","caus_thomas_all_v2","31T4R4OBOSH5924DJPXATS2K7I07CC","3","3","3","7","7","13745","2017-09-15 13:44:25","5545"
"A24J49GQTKPH0T","caus_thomas_all_v2","3OXV7EAXLERYS2UP7MHHUBYU6U336B","2","4","4","7","2","2083","2017-09-15 13:44:25","5546"
"A3JTMXHPNCUFNX","caus_thomas_all_v2","3QAPZX2QN4EET9CR1XNV20JBNDF20W","4","2","2","5","6","3901","2017-09-15 13:44:28","5547"
"A1L8HH8Y5LPSOH
","caus_thomas_all_v2","31T4R4OBOSH5924DJPXATS2K7I07CC","0","4","4","10","5","5221","2017-09-15 13:44:31","5548"
"A3JTMXHPNCUFNX","caus_thomas_all_v2","3QAPZX2QN4EET9CR1XNV20JBNDF20W","8","3","3","10","7","4215","2017-09-15 13:44:33","5549"
"A3JTMXHPNCUFNX","caus_thomas_all_v2","3QAPZX2QN4EET9CR1XNV20JBNDF20W","1","4","4","1","9","4443","2017-09-15 13:44:38","5550"
"A1J7JAUVK73CNW","caus_thomas_all_v2","3E7TUJ2EGCNJSDYKYIQ5RUB8N80D9U","5","0","0","10","5","81063","2017-09-15 13:44:51","5551"
"A29U9X7J8YVB4V
","caus_thomas_all_v2","3WLEIWSYHOIP49INZ5UG8SIS9UJ2H0","1","1","1","1","4","36684","2017-09-15 13:44:56","5552"
"A1BANM5ZO2KS6O","caus_thomas_all_v2","3OUYGIZWR7ZALGDX3VY7YDR4YN90PJ","1","0","0","9","6","83569","2017-09-15 13:45:07","5553"
"A29U9X7J8YVB4V
","caus_thomas_all_v2","3WLEIWSYHOIP49INZ5UG8SIS9UJ2H0","8","2","2","2","10","21185","2017-09-15 13:45:18","5554"
"A23D5GZCAPTLI9","caus_thomas_all_v2","3EA3QWIZ4IWJK3NKO2WX9RSX9KBIT1","5","0","0","5","4","57890","2017-09-15 13:45:23","5555"
"ALGT35T85XA2O","caus_thomas_all_v2","3P1L2B7AD1Q5XCQIDO7B7XE2RGOLOW","0","0","0","2","9","57012","2017-09-15 13:45:30","5556"
"A221L64A30LW7Z","caus_thomas_all_v2","3TYCR1GOTCKHWG4PFXISNVL6BKRLZY","2","0","0","10","7","40282","2017-09-15 13:45:30","5557"
"A1J7JAUVK73CNW","caus_thomas_all_v2","3E7TUJ2EGCNJSDYKYIQ5RUB8N80D9U","4","1","1","6","2","42481","2017-09-15 13:45:35","5558"
"A29U9X7J8YVB4V
","caus_thomas_all_v2","3WLEIWSYHOIP49INZ5UG8SIS9UJ2H0","1","3","3","8","2","17483","2017-09-15 13:45:36","5559"
"A1J7JAUVK73CNW","caus_thomas_all_v2","3E7TUJ2EGCNJSDYKYIQ5RUB8N80D9U","4","2","2","9","3","5858","2017-09-15 13:45:41","5560"
"A1BANM5ZO2KS6O","caus_thomas_all_v2","3OUYGIZWR7ZALGDX3VY7YDR4YN90PJ","8","1","1","4","10","37255","2017-09-15 13:45:45","5561"
"A1J7JAUVK73CNW","caus_thomas_all_v2","3E7TUJ2EGCNJSDYKYIQ5RUB8N80D9U","4","3","3","8","9","5912","2017-09-15 13:45:48","5562"
"A221L64A30LW7Z","caus_thomas_all_v2","3TYCR1GOTCKHWG4PFXISNVL6BKRLZY","0","1","1","3","10","18799","2017-09-15 13:45:50","5563"
"A29U9X7J8YVB4V
","caus_thomas_all_v2","3WLEIWSYHOIP49INZ5UG8SIS9UJ2H0","1","4","4","4","1","13508","2017-09-15 13:45:51","5564"
"ACSTAXXYMBC8W","caus_thomas_all_v2","3ZPBJO59KP2C7JG3WUEX4B9W6L8DHK","4","0","0","2","3","44281","2017-09-15 13:45:51","5565"
"A25Q38HGRI57XW","caus_thomas_all_v2","3HUTX6F6VUOZWQ4A3IP6S1FTLGXO2A","4","0","0","10","6","57385","2017-09-15 13:45:52","5566"
"A1NYFTOY47Z7F4
","caus_thomas_all_v2","35USIKEBNRH5W6NZP51W3PW0BBU6NU","8","0","0","5","6","71035","2017-09-15 13:45:53","5567"
"A1J7JAUVK73CNW","caus_thomas_all_v2","3E7TUJ2EGCNJSDYKYIQ5RUB8N80D9U","4","4","4","7","4","4260","2017-09-15 13:45:54","5568"
"ALGT35T85XA2O","caus_thomas_all_v2","3P1L2B7AD1Q5XCQIDO7B7XE2RGOLOW","0","1","1","5","1","23227","2017-09-15 13:45:54","5569"
"ADHWRZIW3GIVU","caus_thomas_all_v2","3WMOAN2SRBYQBW20QD94FHCZS4LNV2","8","0","0","10","6","73124","2017-09-15 13:45:55","5570"
"A1BJTMENUN3NHW","caus_thomas_all_v2","3570Y55XZPK15YGJ8KJTWW7W991GYW","8","0","0","6","10","64127","2017-09-15 13:45:57","5571"
"A23D5GZCAPTLI9","caus_thomas_all_v2","3EA3QWIZ4IWJK3NKO2WX9RSX9KBIT1","6","1","1","9","9","34529","2017-09-15 13:45:59","5572"
"A1BANM5ZO2KS6O","caus_thomas_all_v2","3OUYGIZWR7ZALGDX3VY7YDR4YN90PJ","0","2","2","5","2","15230","2017-09-15 13:46:01","5573"
"A221L64A30LW7Z","caus_thomas_all_v2","3TYCR1GOTCKHWG4PFXISNVL6BKRLZY","0","2","2","1","6","14306","2017-09-15 13:46:06","5574"
"A1BANM5ZO2KS6O","caus_thomas_all_v2","3OUYGIZWR7ZALGDX3VY7YDR4YN90PJ","1","3","3","7","9","12134","2017-09-15 13:46:14","5575"
"A25Q38HGRI57XW","caus_thomas_all_v2","3HUTX6F6VUOZWQ4A3IP6S1FTLGXO2A","5","1","1","8","8","21629","2017-09-15 13:46:15","5576"
"A221L64A30LW7Z","caus_thomas_all_v2","3TYCR1GOTCKHWG4PFXISNVL6BKRLZY","0","3","3","9","9","9885","2017-09-15 13:46:16","5577"
"ALGT35T85XA2O","caus_thomas_all_v2","3P1L2B7AD1Q5XCQIDO7B7XE2RGOLOW","0","2","2","4","8","22738","2017-09-15 13:46:18","5578"
"A23D5GZCAPTLI9","caus_thomas_all_v2","3EA3QWIZ4IWJK3NKO2WX9RSX9KBIT1","2","2","2","10","6","21022","2017-09-15 13:46:21","5579"
"A1BJTMENUN3NHW","caus_thomas_all_v2","3570Y55XZPK15YGJ8KJTWW7W991GYW","8","1","1","10","1","32578","2017-09-15 13:46:30","5580"
"A1BANM5ZO2KS6O","caus_thomas_all_v2","3OUYGIZWR7ZALGDX3VY7YDR4YN90PJ","1","4","4","3","8","15471","2017-09-15 13:46:31","5581"
"ALGT35T85XA2O","caus_thomas_all_v2","3P1L2B7AD1Q5XCQIDO7B7XE2RGOLOW","0","3","3","6","2","12432","2017-09-15 13:46:31","5582"
"A221L64A30LW7Z","caus_thomas_all_v2","3TYCR1GOTCKHWG4PFXISNVL6BKRLZY","0","4","4","4","2","14828","2017-09-15 13:46:32","5583"
"A3TX2KJ7VJG3N0","caus_thomas_all_v2","3QJOXOW4XJS3R3VEJM5U2YZDNJ8EMN","0","0","0","6","1","33004","2017-09-15 13:46:34","5584"
"A25Q38HGRI57XW","caus_thomas_all_v2","3HUTX6F6VUOZWQ4A3IP6S1FTLGXO2A","4","2","2","6","7","20392","2017-09-15 13:46:36","5585"
"A1NYFTOY47Z7F4
","caus_thomas_all_v2","35USIKEBNRH5W6NZP51W3PW0BBU6NU","8","1","1","4","7","44880","2017-09-15 13:46:39","5586"
"A23D5GZCAPTLI9","caus_thomas_all_v2","3EA3QWIZ4IWJK3NKO2WX9RSX9KBIT1","8","3","3","1","10","17845","2017-09-15 13:46:40","5587"
"ALGT35T85XA2O","caus_thomas_all_v2","3P1L2B7AD1Q5XCQIDO7B7XE2RGOLOW","0","4","4","3","3","11523","2017-09-15 13:46:44","5588"
"ADHWRZIW3GIVU","caus_thomas_all_v2","3WMOAN2SRBYQBW20QD94FHCZS4LNV2","7","1","1","5","9","48106","2017-09-15 13:46:44","5589"
"A17WYNW1GJQ4NX","caus_thomas_all_v2","3KRVW3HTZNM41M0WKHPZRF3SOAHMSW","0","0","0","10","7","34490","2017-09-15 13:46:45","5590"
"A30CKD84V82EH2","caus_thomas_all_v2","384PI804XS27Y8TPVC21TIWFL7G0SZ","5","0","0","8","8","34131","2017-09-15 13:46:52","5591"
"A25Q38HGRI57XW","caus_thomas_all_v2","3HUTX6F6VUOZWQ4A3IP6S1FTLGXO2A","6","3","3","2","3","18327","2017-09-15 13:46:56","5592"
"A3TX2KJ7VJG3N0","caus_thomas_all_v2","3QJOXOW4XJS3R3VEJM5U2YZDNJ8EMN","4","1","1","4","3","22848","2017-09-15 13:46:57","5593"
"A23D5GZCAPTLI9","caus_thomas_all_v2","3EA3QWIZ4IWJK3NKO2WX9RSX9KBIT1","5","4","4","7","3","17075","2017-09-15 13:46:58","5594"
"A17WYNW1GJQ4NX","caus_thomas_all_v2","3KRVW3HTZNM41M0WKHPZRF3SOAHMSW","4","1","1","6","6","15246","2017-09-15 13:47:02","5595"
"A23PQPECIUVKHC","caus_thomas_all_v2","3B4YI393V9X7ZHD14ELL3O2YGZZSSE","1","0","0","3","1","31068","2017-09-15 13:47:05","5596"
"A2IQ0QCTQ3WLT","caus_thomas_all_v2","3X65QVEQI0O4ONTFNJYKCXKL223CLO","6","0","0","7","4","46216","2017-09-15 13:47:06","5597"
"A28NJTAES9CFQH","caus_thomas_all_v2","3DI28L7YXAF6VE9PQ0MWI6BAP8D1E2","4","0","0","7","2","41809","2017-09-15 13:47:08","5598"
"A25Q38HGRI57XW","caus_thomas_all_v2","3HUTX6F6VUOZWQ4A3IP6S1FTLGXO2A","6","4","4","3","5","11721","2017-09-15 13:47:08","5599"
"A3TX2KJ7VJG3N0","caus_thomas_all_v2","3QJOXOW4XJS3R3VEJM5U2YZDNJ8EMN","1","2","2","5","2","11931","2017-09-15 13:47:10","5600"
"A30CKD84V82EH2","caus_thomas_all_v2","384PI804XS27Y8TPVC21TIWFL7G0SZ","5","1","1","7","7","17596","2017-09-15 13:47:11","5601"
"A2IQ0QCTQ3WLT","caus_thomas_all_v2","3X65QVEQI0O4ONTFNJYKCXKL223CLO","8","1","1","9","5","8982","2017-09-15 13:47:16","5602"
"A30CKD84V82EH2","caus_thomas_all_v2","384PI804XS27Y8TPVC21TIWFL7G0SZ","7","2","2","10","4","9423","2017-09-15 13:47:21","5603"
"A17WYNW1GJQ4NX","caus_thomas_all_v2","3KRVW3HTZNM41M0WKHPZRF3SOAHMSW","2","2","2","9","3","19754","2017-09-15 13:47:22","5604"
"A23PQPECIUVKHC","caus_thomas_all_v2","3B4YI393V9X7ZHD14ELL3O2YGZZSSE","1","1","1","6","3","16349","2017-09-15 13:47:22","5605"
"A3TX2KJ7VJG3N0","caus_thomas_all_v2","3QJOXOW4XJS3R3VEJM5U2YZDNJ8EMN","4","3","3","7","8","13845","2017-09-15 13:47:25","5606"
"A2IQ0QCTQ3WLT","caus_thomas_all_v2","3X65QVEQI0O4ONTFNJYKCXKL223CLO","7","2","2","6","2","8938","2017-09-15 13:47:26","5607"
"A28NJTAES9CFQH","caus_thomas_all_v2","3DI28L7YXAF6VE9PQ0MWI6BAP8D1E2","4","1","1","8","7","19213","2017-09-15 13:47:28","5608"
"A1BJTMENUN3NHW","caus_thomas_all_v2","3570Y55XZPK15YGJ8KJTWW7W991GYW","1","2","2","8","9","58449","2017-09-15 13:47:29","5609"
"A2IQ0QCTQ3WLT","caus_thomas_all_v2","3X65QVEQI0O4ONTFNJYKCXKL223CLO","1","3","3","1","10","3784","2017-09-15 13:47:31","5610"
"ACSTAXXYMBC8W","caus_thomas_all_v2","3ZPBJO59KP2C7JG3WUEX4B9W6L8DHK","6","1","1","5","6","98341","2017-09-15 13:47:31","5611"
"ADHWRZIW3GIVU","caus_thomas_all_v2","3WMOAN2SRBYQBW20QD94FHCZS4LNV2","8","2","2","6","10","47775","2017-09-15 13:47:33","5612"
"A3TX2KJ7VJG3N0","caus_thomas_all_v2","3QJOXOW4XJS3R3VEJM5U2YZDNJ8EMN","8","4","4","1","5","9166","2017-09-15 13:47:35","5613"
"A23PQPECIUVKHC","caus_thomas_all_v2","3B4YI393V9X7ZHD14ELL3O2YGZZSSE","6","2","2","2","4","13036","2017-09-15 13:47:36","5614"
"A17WYNW1GJQ4NX","caus_thomas_all_v2","3KRVW3HTZNM41M0WKHPZRF3SOAHMSW","5","3","3","3","9","13553","2017-09-15 13:47:37","5615"
"A30CKD84V82EH2","caus_thomas_all_v2","384PI804XS27Y8TPVC21TIWFL7G0SZ","7","3","3","6","10","15774","2017-09-15 13:47:38","5616"
"A3EKKEZ21SGJEC
","caus_thomas_all_v2","3Z7VU45IPYI4690LMN093GCSDEN1Z9","1","0","0","9","1","39541","2017-09-15 13:47:41","5617"
"A2IQ0QCTQ3WLT","caus_thomas_all_v2","3X65QVEQI0O4ONTFNJYKCXKL223CLO","8","4","4","10","8","10002","2017-09-15 13:47:42","5618"
"A1NYFTOY47Z7F4
","caus_thomas_all_v2","35USIKEBNRH5W6NZP51W3PW0BBU6NU","8","2","2","2","9","63443","2017-09-15 13:47:43","5619"
"A17WYNW1GJQ4NX","caus_thomas_all_v2","3KRVW3HTZNM41M0WKHPZRF3SOAHMSW","4","4","4","4","5","5755","2017-09-15 13:47:44","5620"
"A30CKD84V82EH2","caus_thomas_all_v2","384PI804XS27Y8TPVC21TIWFL7G0SZ","7","4","4","9","9","6132","2017-09-15 13:47:45","5621"
"A28NJTAES9CFQH","caus_thomas_all_v2","3DI28L7YXAF6VE9PQ0MWI6BAP8D1E2","4","2","2","4","9","17635","2017-09-15 13:47:47","5622"
"A23PQPECIUVKHC","caus_thomas_all_v2","3B4YI393V9X7ZHD14ELL3O2YGZZSSE","3","3","3","5","6","9878","2017-09-15 13:47:47","5623"
"ACSTAXXYMBC8W","caus_thomas_all_v2","3ZPBJO59KP2C7JG3WUEX4B9W6L8DHK","5","2","2","1","1","16009","2017-09-15 13:47:48","5624"
"AMB2CMVR8TCXU","caus_thomas_all_v2","3TK8OJTYM1MQEHED6SMWJ6HUSJMPV0","3","0","0","7","3","27636","2017-09-15 13:47:50","5625"
"ACSTAXXYMBC8W","caus_thomas_all_v2","3ZPBJO59KP2C7JG3WUEX4B9W6L8DHK","5","3","3","6","9","4186","2017-09-15 13:47:53","5626"
"A1NYFTOY47Z7F4
","caus_thomas_all_v2","35USIKEBNRH5W6NZP51W3PW0BBU6NU","4","3","3","3","3","8557","2017-09-15 13:47:53","5627"
"A1RVDQI5SU8A6C","caus_thomas_all_v2","3TXMY6UCAEPFFK9SFO6GTJJFC8TCQG","0","0","0","10","1","28899","2017-09-15 13:47:54","5628"
"A1BJTMENUN3NHW","caus_thomas_all_v2","3570Y55XZPK15YGJ8KJTWW7W991GYW","7","3","3","2","6","22846","2017-09-15 13:47:54","5629"
"A23PQPECIUVKHC","caus_thomas_all_v2","3B4YI393V9X7ZHD14ELL3O2YGZZSSE","4","4","4","9","9","6278","2017-09-15 13:47:55","5630"
"A1132UNR0JW5TH
","caus_thomas_all_v2","3QL2OFSM96JUCNW0ZWEZPPOA7X6CNT","6","0","0","1","3","22147","2017-09-15 13:47:56","5631"
"A3EKKEZ21SGJEC
","caus_thomas_all_v2","3Z7VU45IPYI4690LMN093GCSDEN1Z9","7","1","1","1","3","19949","2017-09-15 13:48:02","5632"
"A1132UNR0JW5TH
","caus_thomas_all_v2","3QL2OFSM96JUCNW0ZWEZPPOA7X6CNT","3","1","1","7","4","7917","2017-09-15 13:48:05","5633"
"A28NJTAES9CFQH","caus_thomas_all_v2","3DI28L7YXAF6VE9PQ0MWI6BAP8D1E2","4","3","3","9","4","17422","2017-09-15 13:48:05","5634"
"A1NYFTOY47Z7F4
","caus_thomas_all_v2","35USIKEBNRH5W6NZP51W3PW0BBU6NU","6","4","4","6","5","14162","2017-09-15 13:48:08","5635"
"AMB2CMVR8TCXU","caus_thomas_all_v2","3TK8OJTYM1MQEHED6SMWJ6HUSJMPV0","3","1","1","4","8","18042","2017-09-15 13:48:09","5636"
"A1RVDQI5SU8A6C","caus_thomas_all_v2","3TXMY6UCAEPFFK9SFO6GTJJFC8TCQG","8","1","1","3","9","17676","2017-09-15 13:48:12","5637"
"ACSTAXXYMBC8W","caus_thomas_all_v2","3ZPBJO59KP2C7JG3WUEX4B9W6L8DHK","3","4","4","10","4","18447","2017-09-15 13:48:12","5638"
"A1132UNR0JW5TH
","caus_thomas_all_v2","3QL2OFSM96JUCNW0ZWEZPPOA7X6CNT","2","2","2","8","9","7761","2017-09-15 13:48:14","5639"
"A3EKKEZ21SGJEC
","caus_thomas_all_v2","3Z7VU45IPYI4690LMN093GCSDEN1Z9","4","2","2","4","4","13784","2017-09-15 13:48:16","5640"
"A28NJTAES9CFQH","caus_thomas_all_v2","3DI28L7YXAF6VE9PQ0MWI6BAP8D1E2","4","4","4","2","8","10379","2017-09-15 13:48:17","5641"
"ADHWRZIW3GIVU","caus_thomas_all_v2","3WMOAN2SRBYQBW20QD94FHCZS4LNV2","5","3","3","7","4","46482","2017-09-15 13:48:21","5642"
"A1132UNR0JW5TH
","caus_thomas_all_v2","3QL2OFSM96JUCNW0ZWEZPPOA7X6CNT","6","3","3","3","8","7062","2017-09-15 13:48:22","5643"
"A2S5GPVIUV8RJI","caus_thomas_all_v2","38JBBYETQOBNND68DI5YG4ID1SM4EH","5","3","3","7","5","236601","2017-09-15 13:48:23","5644"
"AMB2CMVR8TCXU","caus_thomas_all_v2","3TK8OJTYM1MQEHED6SMWJ6HUSJMPV0","3","2","2","2","7","14820","2017-09-15 13:48:25","5645"
"A1RVDQI5SU8A6C","caus_thomas_all_v2","3TXMY6UCAEPFFK9SFO6GTJJFC8TCQG","7","2","2","2","5","13230","2017-09-15 13:48:26","5646"
"A1BJTMENUN3NHW","caus_thomas_all_v2","3570Y55XZPK15YGJ8KJTWW7W991GYW","5","4","4","5","8","31653","2017-09-15 13:48:27","5647"
"A1132UNR0JW5TH
","caus_thomas_all_v2","3QL2OFSM96JUCNW0ZWEZPPOA7X6CNT","7","4","4","2","2","4237","2017-09-15 13:48:27","5648"
"A3VQCK2ZTPTUMY","caus_thomas_all_v2","32VNZTT0A75CWHBDZOPYFBHWGHE4RW","8","0","0","4","10","20912","2017-09-15 13:48:28","5649"
"A250J2KOMY42GD","caus_thomas_all_v2","3X0H8UUIT1P06YUAOJVM0D5JMCVWSX","4","0","0","6","6","37747","2017-09-15 13:48:28","5650"
"A3EKKEZ21SGJEC
","caus_thomas_all_v2","3Z7VU45IPYI4690LMN093GCSDEN1Z9","0","3","3","10","5","10669","2017-09-15 13:48:28","5651"
"A10BH9PYCYUKDJ","caus_thomas_all_v2","39LNWE0K4UXYKG29O7M7ENEZSYFUI1","0","0","0","7","3","52509","2017-09-15 13:48:31","5652"
"A2S5GPVIUV8RJI","caus_thomas_all_v2","38JBBYETQOBNND68DI5YG4ID1SM4EH","0","4","4","6","1","7744","2017-09-15 13:48:32","5653"
"A1RVDQI5SU8A6C","caus_thomas_all_v2","3TXMY6UCAEPFFK9SFO6GTJJFC8TCQG","4","3","3","9","6","10305","2017-09-15 13:48:38","5654"
"AMB2CMVR8TCXU","caus_thomas_all_v2","3TK8OJTYM1MQEHED6SMWJ6HUSJMPV0","3","3","3","5","2","14796","2017-09-15 13:48:40","5655"
"A3EKKEZ21SGJEC
","caus_thomas_all_v2","3Z7VU45IPYI4690LMN093GCSDEN1Z9","8","4","4","8","10","14922","2017-09-15 13:48:44","5656"
"A1RVDQI5SU8A6C","caus_thomas_all_v2","3TXMY6UCAEPFFK9SFO6GTJJFC8TCQG","4","4","4","8","8","8118","2017-09-15 13:48:47","5657"
"A3VQCK2ZTPTUMY","caus_thomas_all_v2","32VNZTT0A75CWHBDZOPYFBHWGHE4RW","8","1","1","7","2","17425","2017-09-15 13:48:47","5658"
"A250J2KOMY42GD","caus_thomas_all_v2","3X0H8UUIT1P06YUAOJVM0D5JMCVWSX","4","1","1","1","9","21496","2017-09-15 13:48:51","5659"
"ALRBI7LQ4WCL","caus_thomas_all_v2","3IUZPWIU1O82IFH2JAMK9RE95IIWKG","5","0","0","3","4","79829","2017-09-15 13:48:51","5660"
"AMB2CMVR8TCXU","caus_thomas_all_v2","3TK8OJTYM1MQEHED6SMWJ6HUSJMPV0","3","4","4","3","6","12331","2017-09-15 13:48:54","5661"
"A10BH9PYCYUKDJ","caus_thomas_all_v2","39LNWE0K4UXYKG29O7M7ENEZSYFUI1","0","1","1","4","4","25960","2017-09-15 13:48:58","5662"
"A3VQCK2ZTPTUMY","caus_thomas_all_v2","32VNZTT0A75CWHBDZOPYFBHWGHE4RW","7","2","2","3","6","13210","2017-09-15 13:49:00","5663"
"ADHWRZIW3GIVU","caus_thomas_all_v2","3WMOAN2SRBYQBW20QD94FHCZS4LNV2","5","4","4","8","7","39878","2017-09-15 13:49:02","5664"
"A250J2KOMY42GD","caus_thomas_all_v2","3X0H8UUIT1P06YUAOJVM0D5JMCVWSX","4","2","2","5","4","12155","2017-09-15 13:49:04","5665"
"A1B3B409V58ACB","caus_thomas_all_v2","3K2755HG5S4STNPX14QX1QXJQ6WDFN","4","0","0","6","4","44395","2017-09-15 13:49:12","5666"
"AQVXVMX61864S","caus_thomas_all_v2","3AUQQEL7U5UNQ0ATP77645GMKBB0V5","5","0","0","6","3","2599","2017-09-15 13:49:17","5667"
"A250J2KOMY42GD","caus_thomas_all_v2","3X0H8UUIT1P06YUAOJVM0D5JMCVWSX","4","3","3","2","8","12058","2017-09-15 13:49:17","5668"
"AQVXVMX61864S","caus_thomas_all_v2","3AUQQEL7U5UNQ0ATP77645GMKBB0V5","2","1","1","8","7","2259","2017-09-15 13:49:20","5669"
"AQVXVMX61864S","caus_thomas_all_v2","3AUQQEL7U5UNQ0ATP77645GMKBB0V5","7","2","2","2","2","1885","2017-09-15 13:49:23","5670"
"A10BH9PYCYUKDJ","caus_thomas_all_v2","39LNWE0K4UXYKG29O7M7ENEZSYFUI1","0","2","2","2","8","25691","2017-09-15 13:49:24","5671"
"AQVXVMX61864S","caus_thomas_all_v2","3AUQQEL7U5UNQ0ATP77645GMKBB0V5","5","3","3","9","9","1500","2017-09-15 13:49:25","5672"
"A250J2KOMY42GD","caus_thomas_all_v2","3X0H8UUIT1P06YUAOJVM0D5JMCVWSX","4","4","4","3","3","7377","2017-09-15 13:49:26","5673"
"A1W4PFLNVYCC8D","caus_thomas_all_v2","33IZTU6J812FVYZ0YOR82WJQVE1XSR","0","0","0","5","4","44247","2017-09-15 13:49:26","5674"
"A2GE0813KOHJUU","caus_thomas_all_v2","3QEMNNSB2X0FEUARJLSLDYK2SID7DD","1","0","0","10","9","52517","2017-09-15 13:49:26","5675"
"AQVXVMX61864S","caus_thomas_all_v2","3AUQQEL7U5UNQ0ATP77645GMKBB0V5","4","4","4","1","4","1435","2017-09-15 13:49:28","5676"
"A1B3B409V58ACB","caus_thomas_all_v2","3K2755HG5S4STNPX14QX1QXJQ6WDFN","0","1","1","10","3","18764","2017-09-15 13:49:32","5677"
"ALRBI7LQ4WCL","caus_thomas_all_v2","3IUZPWIU1O82IFH2JAMK9RE95IIWKG","6","1","1","5","3","42364","2017-09-15 13:49:34","5678"
"A1W4PFLNVYCC8D","caus_thomas_all_v2","33IZTU6J812FVYZ0YOR82WJQVE1XSR","0","1","1","8","8","14143","2017-09-15 13:49:41","5679"
"A10BH9PYCYUKDJ","caus_thomas_all_v2","39LNWE0K4UXYKG29O7M7ENEZSYFUI1","0","3","3","1","2","16705","2017-09-15 13:49:42","5680"
"AJK9E6YAWAZVT","caus_thomas_all_v2","33TIN5LC04BMQOTBUEDJ4FL95W6Y9N","6","0","0","10","4","24777","2017-09-15 13:49:44","5681"
"A1W4PFLNVYCC8D","caus_thomas_all_v2","33IZTU6J812FVYZ0YOR82WJQVE1XSR","0","2","2","7","1","5685","2017-09-15 13:49:47","5682"
"A1B3B409V58ACB","caus_thomas_all_v2","3K2755HG5S4STNPX14QX1QXJQ6WDFN","4","2","2","3","1","16013","2017-09-15 13:49:49","5683"
"A2GE0813KOHJUU","caus_thomas_all_v2","3QEMNNSB2X0FEUARJLSLDYK2SID7DD","1","1","1","2","3","23900","2017-09-15 13:49:51","5684"
"A1W4PFLNVYCC8D","caus_thomas_all_v2","33IZTU6J812FVYZ0YOR82WJQVE1XSR","0","3","3","2","10","3011","2017-09-15 13:49:51","5685"
"A10BH9PYCYUKDJ","caus_thomas_all_v2","39LNWE0K4UXYKG29O7M7ENEZSYFUI1","0","4","4","6","7","11450","2017-09-15 13:49:54","5686"
"A1W4PFLNVYCC8D","caus_thomas_all_v2","33IZTU6J812FVYZ0YOR82WJQVE1XSR","0","4","4","9","2","3627","2017-09-15 13:49:56","5687"
"AJK9E6YAWAZVT","caus_thomas_all_v2","33TIN5LC04BMQOTBUEDJ4FL95W6Y9N","1","1","1","1","1","11817","2017-09-15 13:49:56","5688"
"A2LGSV2MKHWA49","caus_thomas_all_v2","3IHR8NYAM72RK4VYMWL9AGHHFZN4P1","4","0","0","4","5","43410","2017-09-15 13:49:59","5689"
"ALRBI7LQ4WCL","caus_thomas_all_v2","3IUZPWIU1O82IFH2JAMK9RE95IIWKG","7","2","2","6","6","25578","2017-09-15 13:50:01","5690"
"A1B3B409V58ACB","caus_thomas_all_v2","3K2755HG5S4STNPX14QX1QXJQ6WDFN","4","3","3","4","2","14335","2017-09-15 13:50:04","5691"
"A3VQCK2ZTPTUMY","caus_thomas_all_v2","32VNZTT0A75CWHBDZOPYFBHWGHE4RW","8","3","3","6","1","63138","2017-09-15 13:50:04","5692"
"A2GE0813KOHJUU","caus_thomas_all_v2","3QEMNNSB2X0FEUARJLSLDYK2SID7DD","1","2","2","5","8","12750","2017-09-15 13:50:05","5693"
"A3DA81ZFKYYGFC","caus_thomas_all_v2","3ON104KXQKXH4DSZYIZ42APD8WT4WZ","4","0","0","10","1","65569","2017-09-15 13:50:07","5694"
"AJK9E6YAWAZVT","caus_thomas_all_v2","33TIN5LC04BMQOTBUEDJ4FL95W6Y9N","2","2","2","2","7","9364","2017-09-15 13:50:07","5695"
"A2LGSV2MKHWA49","caus_thomas_all_v2","3IHR8NYAM72RK4VYMWL9AGHHFZN4P1","4","1","1","8","9","15549","2017-09-15 13:50:15","5696"
"A1B3B409V58ACB","caus_thomas_all_v2","3K2755HG5S4STNPX14QX1QXJQ6WDFN","4","4","4","7","6","11194","2017-09-15 13:50:16","5697"
"A3VQCK2ZTPTUMY","caus_thomas_all_v2","32VNZTT0A75CWHBDZOPYFBHWGHE4RW","8","4","4","8","8","12500","2017-09-15 13:50:18","5698"
"A2GE0813KOHJUU","caus_thomas_all_v2","3QEMNNSB2X0FEUARJLSLDYK2SID7DD","1","3","3","3","1","12973","2017-09-15 13:50:19","5699"
"AJK9E6YAWAZVT","caus_thomas_all_v2","33TIN5LC04BMQOTBUEDJ4FL95W6Y9N","6","3","3","7","6","11146","2017-09-15 13:50:19","5700"
"A3DA81ZFKYYGFC","caus_thomas_all_v2","3ON104KXQKXH4DSZYIZ42APD8WT4WZ","6","1","1","2","9","15574","2017-09-15 13:50:23","5701"
"A2LGSV2MKHWA49","caus_thomas_all_v2","3IHR8NYAM72RK4VYMWL9AGHHFZN4P1","4","2","2","7","2","9365","2017-09-15 13:50:26","5702"
"ALRBI7LQ4WCL","caus_thomas_all_v2","3IUZPWIU1O82IFH2JAMK9RE95IIWKG","4","3","3","1","1","25673","2017-09-15 13:50:27","5703"
"AJK9E6YAWAZVT","caus_thomas_all_v2","33TIN5LC04BMQOTBUEDJ4FL95W6Y9N","3","4","4","3","9","7629","2017-09-15 13:50:28","5704"
"A3DA81ZFKYYGFC","caus_thomas_all_v2","3ON104KXQKXH4DSZYIZ42APD8WT4WZ","4","2","2","7","10","6197","2017-09-15 13:50:30","5705"
"A2GE0813KOHJUU","caus_thomas_all_v2","3QEMNNSB2X0FEUARJLSLDYK2SID7DD","1","4","4","6","2","12576","2017-09-15 13:50:33","5706"
"A3DA81ZFKYYGFC","caus_thomas_all_v2","3ON104KXQKXH4DSZYIZ42APD8WT4WZ","4","3","3","6","4","4652","2017-09-15 13:50:37","5707"
"A2LGSV2MKHWA49","caus_thomas_all_v2","3IHR8NYAM72RK4VYMWL9AGHHFZN4P1","4","3","3","1","3","10918","2017-09-15 13:50:38","5708"
"A3DA81ZFKYYGFC","caus_thomas_all_v2","3ON104KXQKXH4DSZYIZ42APD8WT4WZ","6","4","4","1","3","6940","2017-09-15 13:50:44","5709"
" A2HG6BAM8FL8QO
","caus_thomas_all_v2","33FBRBDW6O099G9WTUPG7SYFI27C85","4","0","0","4","7","24969","2017-09-15 13:50:45","5710"
"A2LGSV2MKHWA49","caus_thomas_all_v2","3IHR8NYAM72RK4VYMWL9AGHHFZN4P1","4","4","4","3","10","7433","2017-09-15 13:50:46","5711"
"ALRBI7LQ4WCL","caus_thomas_all_v2","3IUZPWIU1O82IFH2JAMK9RE95IIWKG","2","4","4","2","10","20294","2017-09-15 13:50:49","5712"
"AL83KKXUORS9Y","caus_thomas_all_v2","33C7UALJVLZPMDZYDX0WQWFOE5G184","7","0","0","4","4","39564","2017-09-15 13:50:54","5713"
" A2HG6BAM8FL8QO
","caus_thomas_all_v2","33FBRBDW6O099G9WTUPG7SYFI27C85","4","1","1","1","8","13206","2017-09-15 13:50:59","5714"
"A24VSP7YME39NC","caus_thomas_all_v2","3570Y55XZPK15YGJ8KJTWW7W991YGE","7","0","0","8","6","27416","2017-09-15 13:51:02","5715"
" A2HG6BAM8FL8QO
","caus_thomas_all_v2","33FBRBDW6O099G9WTUPG7SYFI27C85","4","2","2","8","4","11084","2017-09-15 13:51:11","5716"
"A24VSP7YME39NC","caus_thomas_all_v2","3570Y55XZPK15YGJ8KJTWW7W991YGE","1","1","1","2","2","8560","2017-09-15 13:51:12","5717"
" A2HG6BAM8FL8QO
","caus_thomas_all_v2","33FBRBDW6O099G9WTUPG7SYFI27C85","4","3","3","9","5","6368","2017-09-15 13:51:19","5718"
"AL83KKXUORS9Y","caus_thomas_all_v2","33C7UALJVLZPMDZYDX0WQWFOE5G184","7","1","1","6","5","28219","2017-09-15 13:51:23","5719"
" A2HG6BAM8FL8QO
","caus_thomas_all_v2","33FBRBDW6O099G9WTUPG7SYFI27C85","4","4","4","7","3","5227","2017-09-15 13:51:25","5720"
" AKF623KMWNQLO
","caus_thomas_all_v2","3FTYUGLFSUM0RQW8VSDOFE661CGD52","4","0","0","2","4","50206","2017-09-15 13:51:26","5721"
"A12O9P1OTMJOPW","caus_thomas_all_v2","3O6CYIULED2GLBMEDOQMFEN779GWUD","4","0","0","7","7","134806","2017-09-15 13:51:27","5722"
"A1UDLO1L1A4O44","caus_thomas_all_v2","3ZGVPD4G6TI5FTCUO6KJ9MVN5XETZA","8","0","0","6","3","51222","2017-09-15 13:51:39","5723"
"AL83KKXUORS9Y","caus_thomas_all_v2","33C7UALJVLZPMDZYDX0WQWFOE5G184","8","2","2","8","6","14789","2017-09-15 13:51:39","5724"
"A2B2HQHFBYLTXU","caus_thomas_all_v2","3D8YOU6S9ELIRW78M6DIHKOUJ7OU6B","3","0","0","6","4","42049","2017-09-15 13:51:51","5725"
"AL83KKXUORS9Y","caus_thomas_all_v2","33C7UALJVLZPMDZYDX0WQWFOE5G184","7","3","3","5","3","11549","2017-09-15 13:51:51","5726"
" AKF623KMWNQLO
","caus_thomas_all_v2","3FTYUGLFSUM0RQW8VSDOFE661CGD52","5","1","1","6","3","27290","2017-09-15 13:51:54","5727"
"A1Y2WG07T3S64F","caus_thomas_all_v2","3DY4FPOOA1PBQUUSJKQLO1H9T1BRVV","0","0","0","1","6","40412","2017-09-15 13:51:56","5728"
"ALDSIOBRWMZSI","caus_thomas_all_v2","34YB12FSQYP1BHR5PHVI21KP0ZOMGD","3","0","0","4","2","54389","2017-09-15 13:52:02","5729"
"A2B2HQHFBYLTXU","caus_thomas_all_v2","3D8YOU6S9ELIRW78M6DIHKOUJ7OU6B","2","1","1","7","1","10915","2017-09-15 13:52:03","5730"
"AL83KKXUORS9Y","caus_thomas_all_v2","33C7UALJVLZPMDZYDX0WQWFOE5G184","2","4","4","10","8","13278","2017-09-15 13:52:06","5731"
"A1UDLO1L1A4O44","caus_thomas_all_v2","3ZGVPD4G6TI5FTCUO6KJ9MVN5XETZA","8","1","1","7","1","30174","2017-09-15 13:52:10","5732"
"A2B2HQHFBYLTXU","caus_thomas_all_v2","3D8YOU6S9ELIRW78M6DIHKOUJ7OU6B","0","2","2","10","7","10645","2017-09-15 13:52:15","5733"
"A12O9P1OTMJOPW","caus_thomas_all_v2","3O6CYIULED2GLBMEDOQMFEN779GWUD","6","1","1","3","1","49832","2017-09-15 13:52:18","5734"
"A1Y2WG07T3S64F","caus_thomas_all_v2","3DY4FPOOA1PBQUUSJKQLO1H9T1BRVV","0","1","1","6","7","22638","2017-09-15 13:52:19","5735"
"A1UDLO1L1A4O44","caus_thomas_all_v2","3ZGVPD4G6TI5FTCUO6KJ9MVN5XETZA","8","2","2","9","5","10854","2017-09-15 13:52:22","5736"
"A2B2HQHFBYLTXU","caus_thomas_all_v2","3D8YOU6S9ELIRW78M6DIHKOUJ7OU6B","2","3","3","4","9","8282","2017-09-15 13:52:24","5737"
"A2B2HQHFBYLTXU","caus_thomas_all_v2","3D8YOU6S9ELIRW78M6DIHKOUJ7OU6B","2","4","4","8","8","5052","2017-09-15 13:52:30","5738"
"A1Y2WG07T3S64F","caus_thomas_all_v2","3DY4FPOOA1PBQUUSJKQLO1H9T1BRVV","0","2","2","3","4","10149","2017-09-15 13:52:30","5739"
"A1UDLO1L1A4O44","caus_thomas_all_v2","3ZGVPD4G6TI5FTCUO6KJ9MVN5XETZA","8","3","3","1","10","10679","2017-09-15 13:52:34","5740"
" AKF623KMWNQLO
","caus_thomas_all_v2","3FTYUGLFSUM0RQW8VSDOFE661CGD52","4","2","2","1","2","46031","2017-09-15 13:52:41","5741"
"A1Y2WG07T3S64F","caus_thomas_all_v2","3DY4FPOOA1PBQUUSJKQLO1H9T1BRVV","0","3","3","8","1","11118","2017-09-15 13:52:42","5742"
"A1UDLO1L1A4O44","caus_thomas_all_v2","3ZGVPD4G6TI5FTCUO6KJ9MVN5XETZA","8","4","4","4","2","9045","2017-09-15 13:52:44","5743"
"A3NH3DYXA6U9RY","caus_thomas_all_v2","32SVAV9L3FAZF46SXZYTAG0G2DVA3A","3","0","0","1","1","7882","2017-09-15 13:52:45","5744"
"A1Y2WG07T3S64F","caus_thomas_all_v2","3DY4FPOOA1PBQUUSJKQLO1H9T1BRVV","0","4","4","10","5","5455","2017-09-15 13:52:49","5745"
" AKF623KMWNQLO
","caus_thomas_all_v2","3FTYUGLFSUM0RQW8VSDOFE661CGD52","4","3","3","3","6","7376","2017-09-15 13:52:50","5746"
"A12O9P1OTMJOPW","caus_thomas_all_v2","3O6CYIULED2GLBMEDOQMFEN779GWUD","6","2","2","9","2","34659","2017-09-15 13:52:53","5747"
" AKF623KMWNQLO
","caus_thomas_all_v2","3FTYUGLFSUM0RQW8VSDOFE661CGD52","5","4","4","10","7","5308","2017-09-15 13:52:56","5748"
"AEKAL3NMSZK2V
","caus_thomas_all_v2","3NKQQ8O39Y6HC5MNWTLWNQYM0TBUD3","6","0","0","5","3","32945","2017-09-15 13:53:01","5749"
"A3NH3DYXA6U9RY","caus_thomas_all_v2","32SVAV9L3FAZF46SXZYTAG0G2DVA3A","4","1","1","10","7","15710","2017-09-15 13:53:02","5750"
"A10WG1XD0Q2CHG","caus_thomas_all_v2","3COPXFW7XBDCY6K17O8PHX6DCLEPKD","0","0","0","8","4","30186","2017-09-15 13:53:03","5751"
"A3NH3DYXA6U9RY","caus_thomas_all_v2","32SVAV9L3FAZF46SXZYTAG0G2DVA3A","2","2","2","8","9","2294","2017-09-15 13:53:05","5752"
"A12O9P1OTMJOPW","caus_thomas_all_v2","3O6CYIULED2GLBMEDOQMFEN779GWUD","6","3","3","8","4","10970","2017-09-15 13:53:05","5753"
"A3NH3DYXA6U9RY","caus_thomas_all_v2","32SVAV9L3FAZF46SXZYTAG0G2DVA3A","4","3","3","7","10","2922","2017-09-15 13:53:09","5754"
"A3NH3DYXA6U9RY","caus_thomas_all_v2","32SVAV9L3FAZF46SXZYTAG0G2DVA3A","2","4","4","2","3","1776","2017-09-15 13:53:12","5755"
"A29SYT4D4C2WEO","caus_thomas_all_v2","3907X2AHF06HHQGBII2LH1KJVLUP2T","7","0","0","7","5","65992","2017-09-15 13:53:15","5756"
"A12O9P1OTMJOPW","caus_thomas_all_v2","3O6CYIULED2GLBMEDOQMFEN779GWUD","2","4","4","10","5","10686","2017-09-15 13:53:17","5757"
"A10WG1XD0Q2CHG","caus_thomas_all_v2","3COPXFW7XBDCY6K17O8PHX6DCLEPKD","0","1","1","1","2","15108","2017-09-15 13:53:19","5758"
"A17620ICHID4N9","caus_thomas_all_v2","3KRVW3HTZNM41M0WKHPZRF3SOAISM3","4","0","0","4","6","31288","2017-09-15 13:53:22","5759"
"AEKAL3NMSZK2V
","caus_thomas_all_v2","3NKQQ8O39Y6HC5MNWTLWNQYM0TBUD3","3","1","1","6","5","22050","2017-09-15 13:53:24","5760"
"A10WG1XD0Q2CHG","caus_thomas_all_v2","3COPXFW7XBDCY6K17O8PHX6DCLEPKD","0","2","2","5","7","9079","2017-09-15 13:53:29","5761"
"A3SKEW89V5S0DI","caus_thomas_all_v2","39N5ACM9HEOSHA1A3RH0ROSX1R59P6","4","0","0","10","8","22405","2017-09-15 13:53:30","5762"
"A29SYT4D4C2WEO","caus_thomas_all_v2","3907X2AHF06HHQGBII2LH1KJVLUP2T","7","1","1","4","2","15556","2017-09-15 13:53:31","5763"
"A3CWQ7PB749LEA","caus_thomas_all_v2","3WJ1OXY92AHLG1CY9GTP1X8RIZN8A0","6","0","0","4","7","40621","2017-09-15 13:53:34","5764"
"A10WG1XD0Q2CHG","caus_thomas_all_v2","3COPXFW7XBDCY6K17O8PHX6DCLEPKD","0","3","3","9","6","9172","2017-09-15 13:53:40","5765"
"A17620ICHID4N9","caus_thomas_all_v2","3KRVW3HTZNM41M0WKHPZRF3SOAISM3","4","1","1","6","8","17208","2017-09-15 13:53:40","5766"
"A29SYT4D4C2WEO","caus_thomas_all_v2","3907X2AHF06HHQGBII2LH1KJVLUP2T","8","2","2","10","1","9039","2017-09-15 13:53:42","5767"
"AEKAL3NMSZK2V
","caus_thomas_all_v2","3NKQQ8O39Y6HC5MNWTLWNQYM0TBUD3","8","2","2","1","2","17367","2017-09-15 13:53:42","5768"
"A3SKEW89V5S0DI","caus_thomas_all_v2","39N5ACM9HEOSHA1A3RH0ROSX1R59P6","4","1","1","8","1","11472","2017-09-15 13:53:42","5769"
"A2NGG3KW6YTS1G","caus_thomas_all_v2","3I7DHKZYGN1XPAA4MY8E3E9RDPZ5F8","4","0","0","7","4","76431","2017-09-15 13:53:45","5770"
"A215VSM181SC0F","caus_thomas_all_v2","3QFUFYSY9YGFTR648TP4YM3DDT34F1","0","0","0","8","2","45387","2017-09-15 13:53:45","5771"
"AUX8W8TLT65Z6","caus_thomas_all_v2","33TIN5LC04BMQOTBUEDJ4FL95W7Y9O","7","0","0","5","4","23566","2017-09-15 13:53:46","5772"
"A3SKEW89V5S0DI","caus_thomas_all_v2","39N5ACM9HEOSHA1A3RH0ROSX1R59P6","4","2","2","5","5","6144","2017-09-15 13:53:49","5773"
"A17620ICHID4N9","caus_thomas_all_v2","3KRVW3HTZNM41M0WKHPZRF3SOAISM3","5","2","2","7","9","8900","2017-09-15 13:53:50","5774"
"A10WG1XD0Q2CHG","caus_thomas_all_v2","3COPXFW7XBDCY6K17O8PHX6DCLEPKD","8","4","4","2","10","11170","2017-09-15 13:53:52","5775"
"A3SKEW89V5S0DI","caus_thomas_all_v2","39N5ACM9HEOSHA1A3RH0ROSX1R59P6","4","3","3","7","3","2861","2017-09-15 13:53:53","5776"
"A3CWQ7PB749LEA","caus_thomas_all_v2","3WJ1OXY92AHLG1CY9GTP1X8RIZN8A0","7","1","1","9","5","19103","2017-09-15 13:53:54","5777"
"AEKAL3NMSZK2V
","caus_thomas_all_v2","3NKQQ8O39Y6HC5MNWTLWNQYM0TBUD3","0","3","3","10","6","10918","2017-09-15 13:53:54","5778"
"A29SYT4D4C2WEO","caus_thomas_all_v2","3907X2AHF06HHQGBII2LH1KJVLUP2T","8","3","3","2","8","12330","2017-09-15 13:53:56","5779"
"A3SKEW89V5S0DI","caus_thomas_all_v2","39N5ACM9HEOSHA1A3RH0ROSX1R59P6","4","4","4","6","7","3047","2017-09-15 13:53:57","5780"
"A17620ICHID4N9","caus_thomas_all_v2","3KRVW3HTZNM41M0WKHPZRF3SOAISM3","2","3","3","8","4","6286","2017-09-15 13:53:57","5781"
"AUX8W8TLT65Z6","caus_thomas_all_v2","33TIN5LC04BMQOTBUEDJ4FL95W7Y9O","7","1","1","4","6","10733","2017-09-15 13:53:58","5782"
"A2NGG3KW6YTS1G","caus_thomas_all_v2","3I7DHKZYGN1XPAA4MY8E3E9RDPZ5F8","8","1","1","4","10","14004","2017-09-15 13:54:00","5783"
"A2EZNZ6X58RTNR","caus_thomas_all_v2","3018Q3ZVOIRRY6RU8PZPSE3W8R7ARA","4","0","0","2","7","23558","2017-09-15 13:54:01","5784"
"A2V6A57T9UOODX","caus_thomas_all_v2","36TFCYNS44BQ5PLKNUF9YICOM3LXH7","2","0","0","7","4","47791","2017-09-15 13:54:03","5785"
"AUX8W8TLT65Z6","caus_thomas_all_v2","33TIN5LC04BMQOTBUEDJ4FL95W7Y9O","7","2","2","10","10","7829","2017-09-15 13:54:07","5786"
"A17620ICHID4N9","caus_thomas_all_v2","3KRVW3HTZNM41M0WKHPZRF3SOAISM3","1","4","4","9","3","9674","2017-09-15 13:54:08","5787"
"A215VSM181SC0F","caus_thomas_all_v2","3QFUFYSY9YGFTR648TP4YM3DDT34F1","0","1","1","3","6","25581","2017-09-15 13:54:12","5788"
"A3CWQ7PB749LEA","caus_thomas_all_v2","3WJ1OXY92AHLG1CY9GTP1X8RIZN8A0","5","2","2","7","9","17906","2017-09-15 13:54:13","5789"
"AUX8W8TLT65Z6","caus_thomas_all_v2","33TIN5LC04BMQOTBUEDJ4FL95W7Y9O","7","3","3","1","9","5584","2017-09-15 13:54:13","5790"
"A2NGG3KW6YTS1G","caus_thomas_all_v2","3I7DHKZYGN1XPAA4MY8E3E9RDPZ5F8","6","2","2","1","8","16871","2017-09-15 13:54:18","5791"
"AEKAL3NMSZK2V
","caus_thomas_all_v2","3NKQQ8O39Y6HC5MNWTLWNQYM0TBUD3","7","4","4","4","9","24259","2017-09-15 13:54:19","5792"
"A2EZNZ6X58RTNR","caus_thomas_all_v2","3018Q3ZVOIRRY6RU8PZPSE3W8R7ARA","5","1","1","3","9","17276","2017-09-15 13:54:20","5793"
"AUX8W8TLT65Z6","caus_thomas_all_v2","33TIN5LC04BMQOTBUEDJ4FL95W7Y9O","7","4","4","7","2","6009","2017-09-15 13:54:20","5794"
"A29SYT4D4C2WEO","caus_thomas_all_v2","3907X2AHF06HHQGBII2LH1KJVLUP2T","8","4","4","8","6","24719","2017-09-15 13:54:21","5795"
"A2V6A57T9UOODX","caus_thomas_all_v2","36TFCYNS44BQ5PLKNUF9YICOM3LXH7","4","1","1","9","8","17487","2017-09-15 13:54:22","5796"
"A2NGG3KW6YTS1G","caus_thomas_all_v2","3I7DHKZYGN1XPAA4MY8E3E9RDPZ5F8","3","3","3","6","2","4781","2017-09-15 13:54:24","5797"
"A215VSM181SC0F","caus_thomas_all_v2","3QFUFYSY9YGFTR648TP4YM3DDT34F1","0","2","2","5","5","13112","2017-09-15 13:54:26","5798"
"A3CWQ7PB749LEA","caus_thomas_all_v2","3WJ1OXY92AHLG1CY9GTP1X8RIZN8A0","2","3","3","2","4","12469","2017-09-15 13:54:26","5799"
"A2EZNZ6X58RTNR","caus_thomas_all_v2","3018Q3ZVOIRRY6RU8PZPSE3W8R7ARA","3","2","2","9","5","6189","2017-09-15 13:54:27","5800"
"A2V6A57T9UOODX","caus_thomas_all_v2","36TFCYNS44BQ5PLKNUF9YICOM3LXH7","1","2","2","6","2","6870","2017-09-15 13:54:30","5801"
"A1OR3EL76SYRI9","caus_thomas_all_v2","3AQF3RZ558JT8EAIRHIJVKNR9K9F6X","5","0","0","2","4","20965","2017-09-15 13:54:30","5802"
"A2NGG3KW6YTS1G","caus_thomas_all_v2","3I7DHKZYGN1XPAA4MY8E3E9RDPZ5F8","2","4","4","9","6","7446","2017-09-15 13:54:32","5803"
"A1NM7ZPZ3NH412
","caus_thomas_all_v2","3PH3VY7DJLYX7AGOJBPUW62M9RWWZ3","7","0","0","6","3","27674","2017-09-15 13:54:34","5804"
"A2EZNZ6X58RTNR","caus_thomas_all_v2","3018Q3ZVOIRRY6RU8PZPSE3W8R7ARA","8","3","3","8","10","7252","2017-09-15 13:54:35","5805"
"A1OR3EL76SYRI9","caus_thomas_all_v2","3AQF3RZ558JT8EAIRHIJVKNR9K9F6X","0","1","1","10","5","7936","2017-09-15 13:54:39","5806"
"A215VSM181SC0F","caus_thomas_all_v2","3QFUFYSY9YGFTR648TP4YM3DDT34F1","0","3","3","9","4","14081","2017-09-15 13:54:41","5807"
"A2V6A57T9UOODX","caus_thomas_all_v2","36TFCYNS44BQ5PLKNUF9YICOM3LXH7","3","3","3","5","3","11089","2017-09-15 13:54:42","5808"
"A1NM7ZPZ3NH412
","caus_thomas_all_v2","3PH3VY7DJLYX7AGOJBPUW62M9RWWZ3","7","1","1","5","2","8092","2017-09-15 13:54:43","5809"
"A2EZNZ6X58RTNR","caus_thomas_all_v2","3018Q3ZVOIRRY6RU8PZPSE3W8R7ARA","0","4","4","7","1","7907","2017-09-15 13:54:44","5810"
"A1OR3EL76SYRI9","caus_thomas_all_v2","3AQF3RZ558JT8EAIRHIJVKNR9K9F6X","7","2","2","1","8","8367","2017-09-15 13:54:48","5811"
"A2V6A57T9UOODX","caus_thomas_all_v2","36TFCYNS44BQ5PLKNUF9YICOM3LXH7","5","4","4","3","5","10622","2017-09-15 13:54:54","5812"
"A1NM7ZPZ3NH412
","caus_thomas_all_v2","3PH3VY7DJLYX7AGOJBPUW62M9RWWZ3","7","2","2","3","9","9719","2017-09-15 13:54:54","5813"
"A215VSM181SC0F","caus_thomas_all_v2","3QFUFYSY9YGFTR648TP4YM3DDT34F1","0","4","4","10","10","12616","2017-09-15 13:54:55","5814"
"A1AXJTLZGJ42MV","caus_thomas_all_v2","3IRIK4HM3ALM52Q80FSINE2OC7I6CE","1","0","0","9","5","22438","2017-09-15 13:54:58","5815"
"A3CWQ7PB749LEA","caus_thomas_all_v2","3WJ1OXY92AHLG1CY9GTP1X8RIZN8A0","1","4","4","5","2","32084","2017-09-15 13:54:59","5816"
"A17LIM50IMQN7Y","caus_thomas_all_v2","3UOUJI6MTDFVABR4NTM8HX1EGBNXU8","3","0","0","5","7","40866","2017-09-15 13:55:00","5817"
"A1YEZJGWLSBRI0
","caus_thomas_all_v2","3LRLIPTPEQA5B2EZI5QSR2HIDZHAKL","8","0","0","4","4","32700","2017-09-15 13:55:01","5818"
"A1NM7ZPZ3NH412
","caus_thomas_all_v2","3PH3VY7DJLYX7AGOJBPUW62M9RWWZ3","6","3","3","2","7","5693","2017-09-15 13:55:01","5819"
"A1OR3EL76SYRI9","caus_thomas_all_v2","3AQF3RZ558JT8EAIRHIJVKNR9K9F6X","2","3","3","7","9","16280","2017-09-15 13:55:06","5820"
"A1NM7ZPZ3NH412
","caus_thomas_all_v2","3PH3VY7DJLYX7AGOJBPUW62M9RWWZ3","6","4","4","4","8","4851","2017-09-15 13:55:07","5821"
"A17LIM50IMQN7Y","caus_thomas_all_v2","3UOUJI6MTDFVABR4NTM8HX1EGBNXU8","2","1","1","1","4","4650","2017-09-15 13:55:07","5822"
"A17LIM50IMQN7Y","caus_thomas_all_v2","3UOUJI6MTDFVABR4NTM8HX1EGBNXU8","3","2","2","2","10","3165","2017-09-15 13:55:11","5823"
"A1OR3EL76SYRI9","caus_thomas_all_v2","3AQF3RZ558JT8EAIRHIJVKNR9K9F6X","1","4","4","9","1","4510","2017-09-15 13:55:11","5824"
"AAGKOZ4QSVDZE","caus_thomas_all_v2","392CY0QWG1SZ3I8U91VP1JG5TLWI47","5","0","0","5","9","19868","2017-09-15 13:55:12","5825"
"A1YEZJGWLSBRI0
","caus_thomas_all_v2","3LRLIPTPEQA5B2EZI5QSR2HIDZHAKL","8","1","1","9","9","11864","2017-09-15 13:55:13","5826"
"A17LIM50IMQN7Y","caus_thomas_all_v2","3UOUJI6MTDFVABR4NTM8HX1EGBNXU8","3","3","3","10","5","2188","2017-09-15 13:55:14","5827"
"A1AXJTLZGJ42MV","caus_thomas_all_v2","3IRIK4HM3ALM52Q80FSINE2OC7I6CE","4","1","1","3","3","15549","2017-09-15 13:55:15","5828"
"A17LIM50IMQN7Y","caus_thomas_all_v2","3UOUJI6MTDFVABR4NTM8HX1EGBNXU8","3","4","4","8","2","1957","2017-09-15 13:55:17","5829"
"A1YEZJGWLSBRI0
","caus_thomas_all_v2","3LRLIPTPEQA5B2EZI5QSR2HIDZHAKL","8","2","2","1","2","6868","2017-09-15 13:55:21","5830"
"AAF1SJ9FCBF75","caus_thomas_all_v2","3J88R45B2GZII6J867NE7REF8UVPX4","4","0","0","9","6","66426","2017-09-15 13:55:22","5831"
"AAGKOZ4QSVDZE","caus_thomas_all_v2","392CY0QWG1SZ3I8U91VP1JG5TLWI47","6","1","1","1","1","10517","2017-09-15 13:55:24","5832"
"A1YEZJGWLSBRI0
","caus_thomas_all_v2","3LRLIPTPEQA5B2EZI5QSR2HIDZHAKL","8","3","3","8","8","6779","2017-09-15 13:55:29","5833"
"A1AXJTLZGJ42MV","caus_thomas_all_v2","3IRIK4HM3ALM52Q80FSINE2OC7I6CE","4","2","2","2","2","16732","2017-09-15 13:55:32","5834"
"AAGKOZ4QSVDZE","caus_thomas_all_v2","392CY0QWG1SZ3I8U91VP1JG5TLWI47","2","2","2","8","3","7754","2017-09-15 13:55:33","5835"
"A1YEZJGWLSBRI0
","caus_thomas_all_v2","3LRLIPTPEQA5B2EZI5QSR2HIDZHAKL","8","4","4","2","3","3980","2017-09-15 13:55:34","5836"
"A24VSP7YME39NC","caus_thomas_all_v2","3570Y55XZPK15YGJ8KJTWW7W991YGE","0","2","2","3","9","266771","2017-09-15 13:55:40","5837"
"A1AXJTLZGJ42MV","caus_thomas_all_v2","3IRIK4HM3ALM52Q80FSINE2OC7I6CE","4","3","3","6","9","8762","2017-09-15 13:55:42","5838"
"A2FG47R5I9M8U0","caus_thomas_all_v2","31UV0MXWNQDHZ1CUN6EZ6BMJTHRI5C","2","0","0","3","7","39427","2017-09-15 13:55:43","5839"
"AAGKOZ4QSVDZE","caus_thomas_all_v2","392CY0QWG1SZ3I8U91VP1JG5TLWI47","7","3","3","10","6","12609","2017-09-15 13:55:46","5840"
"A24VSP7YME39NC","caus_thomas_all_v2","3570Y55XZPK15YGJ8KJTWW7W991YGE","0","3","3","4","4","9004","2017-09-15 13:55:50","5841"
"A1AXJTLZGJ42MV","caus_thomas_all_v2","3IRIK4HM3ALM52Q80FSINE2OC7I6CE","4","4","4","7","7","7938","2017-09-15 13:55:51","5842"
"AAF1SJ9FCBF75","caus_thomas_all_v2","3J88R45B2GZII6J867NE7REF8UVPX4","3","1","1","4","2","38047","2017-09-15 13:56:01","5843"
"A2FG47R5I9M8U0","caus_thomas_all_v2","31UV0MXWNQDHZ1CUN6EZ6BMJTHRI5C","2","1","1","5","3","19808","2017-09-15 13:56:04","5844"
"AAGKOZ4QSVDZE","caus_thomas_all_v2","392CY0QWG1SZ3I8U91VP1JG5TLWI47","6","4","4","2","4","16747","2017-09-15 13:56:04","5845"
"A24VSP7YME39NC","caus_thomas_all_v2","3570Y55XZPK15YGJ8KJTWW7W991YGE","0","4","4","1","1","17600","2017-09-15 13:56:08","5846"
"A2FG47R5I9M8U0","caus_thomas_all_v2","31UV0MXWNQDHZ1CUN6EZ6BMJTHRI5C","6","2","2","1","5","8779","2017-09-15 13:56:13","5847"
"A3LJA8ZMNLSWWQ","caus_thomas_all_v2","3G0WWMR1UVLY6O6J4EFU9UDRBC8NQA","1","0","0","6","1","23153","2017-09-15 13:56:26","5848"
"AAF1SJ9FCBF75","caus_thomas_all_v2","3J88R45B2GZII6J867NE7REF8UVPX4","6","2","2","2","8","23857","2017-09-15 13:56:26","5849"
"A2FG47R5I9M8U0","caus_thomas_all_v2","31UV0MXWNQDHZ1CUN6EZ6BMJTHRI5C","3","3","3","4","6","19745","2017-09-15 13:56:34","5850"
"AAF1SJ9FCBF75","caus_thomas_all_v2","3J88R45B2GZII6J867NE7REF8UVPX4","4","3","3","6","7","11917","2017-09-15 13:56:39","5851"
"A3LJA8ZMNLSWWQ","caus_thomas_all_v2","3G0WWMR1UVLY6O6J4EFU9UDRBC8NQA","8","1","1","1","10","14206","2017-09-15 13:56:41","5852"
"A2FG47R5I9M8U0","caus_thomas_all_v2","31UV0MXWNQDHZ1CUN6EZ6BMJTHRI5C","0","4","4","10","1","5835","2017-09-15 13:56:41","5853"
"A3A2N0P3N2ZGQU","caus_thomas_all_v2","3CCZ6YKWR7KOO0JRJC8MTINGAR495K","0","0","0","9","7","40931","2017-09-15 13:56:50","5854"
"A3LJA8ZMNLSWWQ","caus_thomas_all_v2","3G0WWMR1UVLY6O6J4EFU9UDRBC8NQA","3","2","2","8","6","8874","2017-09-15 13:56:51","5855"
"A3LJA8ZMNLSWWQ","caus_thomas_all_v2","3G0WWMR1UVLY6O6J4EFU9UDRBC8NQA","6","3","3","3","9","7872","2017-09-15 13:57:00","5856"
"AAF1SJ9FCBF75","caus_thomas_all_v2","3J88R45B2GZII6J867NE7REF8UVPX4","0","4","4","10","1","21783","2017-09-15 13:57:02","5857"
"A369K7I5SXBPNC","caus_thomas_all_v2","33FOTY3KEMMRYGPBU9G1SIB74W21CB","4","0","0","8","7","29482","2017-09-15 13:57:03","5858"
"A3S3WYVCVWW8IZ","caus_thomas_all_v2","3DQQ64TANGM3T6EIW2RS5808ZSOWPH","5","0","0","2","5","43879","2017-09-15 13:57:03","5859"
"A3LJA8ZMNLSWWQ","caus_thomas_all_v2","3G0WWMR1UVLY6O6J4EFU9UDRBC8NQA","1","4","4","9","3","6495","2017-09-15 13:57:07","5860"
"A3A2N0P3N2ZGQU","caus_thomas_all_v2","3CCZ6YKWR7KOO0JRJC8MTINGAR495K","0","1","1","10","4","16478","2017-09-15 13:57:08","5861"
"A3A2N0P3N2ZGQU","caus_thomas_all_v2","3CCZ6YKWR7KOO0JRJC8MTINGAR495K","0","2","2","6","6","15604","2017-09-15 13:57:25","5862"
"A369K7I5SXBPNC","caus_thomas_all_v2","33FOTY3KEMMRYGPBU9G1SIB74W21CB","4","1","1","9","5","21650","2017-09-15 13:57:25","5863"
"ANGIVLE5G16LC","caus_thomas_all_v2","3QAVNHZ3EM5GV8WH352T62UX2ZMALO","0","0","0","2","8","155953","2017-09-15 13:57:28","5864"
"A3S3WYVCVWW8IZ","caus_thomas_all_v2","3DQQ64TANGM3T6EIW2RS5808ZSOWPH","4","1","1","4","8","26700","2017-09-15 13:57:31","5865"
"A3A2N0P3N2ZGQU","caus_thomas_all_v2","3CCZ6YKWR7KOO0JRJC8MTINGAR495K","0","3","3","1","9","10104","2017-09-15 13:57:36","5866"
"A2B8HPIZDKYKDR","caus_thomas_all_v2","33OOO72IVHMS701KWS0BYOU2WFTTCC","2","0","0","7","8","23472","2017-09-15 13:57:44","5867"
"A369K7I5SXBPNC","caus_thomas_all_v2","33FOTY3KEMMRYGPBU9G1SIB74W21CB","4","2","2","2","8","18850","2017-09-15 13:57:45","5868"
"A3A2N0P3N2ZGQU","caus_thomas_all_v2","3CCZ6YKWR7KOO0JRJC8MTINGAR495K","0","4","4","2","2","11587","2017-09-15 13:57:49","5869"
"A3S3WYVCVWW8IZ","caus_thomas_all_v2","3DQQ64TANGM3T6EIW2RS5808ZSOWPH","2","2","2","9","4","22449","2017-09-15 13:57:54","5870"
"A2B8HPIZDKYKDR","caus_thomas_all_v2","33OOO72IVHMS701KWS0BYOU2WFTTCC","1","1","1","5","4","9961","2017-09-15 13:57:55","5871"
"ANGIVLE5G16LC","caus_thomas_all_v2","3QAVNHZ3EM5GV8WH352T62UX2ZMALO","0","1","1","10","4","27562","2017-09-15 13:57:57","5872"
"A3S3WYVCVWW8IZ","caus_thomas_all_v2","3DQQ64TANGM3T6EIW2RS5808ZSOWPH","2","3","3","6","3","6601","2017-09-15 13:58:02","5873"
"A369K7I5SXBPNC","caus_thomas_all_v2","33FOTY3KEMMRYGPBU9G1SIB74W21CB","4","3","3","4","4","16206","2017-09-15 13:58:03","5874"
"A2B8HPIZDKYKDR","caus_thomas_all_v2","33OOO72IVHMS701KWS0BYOU2WFTTCC","3","2","2","1","6","6908","2017-09-15 13:58:03","5875"
"ANGIVLE5G16LC","caus_thomas_all_v2","3QAVNHZ3EM5GV8WH352T62UX2ZMALO","0","2","2","1","7","11396","2017-09-15 13:58:09","5876"
"A2B8HPIZDKYKDR","caus_thomas_all_v2","33OOO72IVHMS701KWS0BYOU2WFTTCC","2","3","3","3","3","5823","2017-09-15 13:58:10","5877"
"A3S3WYVCVWW8IZ","caus_thomas_all_v2","3DQQ64TANGM3T6EIW2RS5808ZSOWPH","2","4","4","5","7","6996","2017-09-15 13:58:10","5878"
"A2V3CQ0WPQTTYP","caus_thomas_all_v2","3K4J6M3CXEU09GIGSE5DTAPP6I0GAO","1","0","0","9","8","50655","2017-09-15 13:58:11","5879"
"A2B8HPIZDKYKDR","caus_thomas_all_v2","33OOO72IVHMS701KWS0BYOU2WFTTCC","0","4","4","9","1","4753","2017-09-15 13:58:16","5880"
"A369K7I5SXBPNC","caus_thomas_all_v2","33FOTY3KEMMRYGPBU9G1SIB74W21CB","8","4","4","7","10","13788","2017-09-15 13:58:17","5881"
"ANGIVLE5G16LC","caus_thomas_all_v2","3QAVNHZ3EM5GV8WH352T62UX2ZMALO","0","3","3","8","9","12056","2017-09-15 13:58:22","5882"
"ANGIVLE5G16LC","caus_thomas_all_v2","3QAVNHZ3EM5GV8WH352T62UX2ZMALO","0","4","4","4","5","14281","2017-09-15 13:58:37","5883"
"A2V3CQ0WPQTTYP","caus_thomas_all_v2","3K4J6M3CXEU09GIGSE5DTAPP6I0GAO","1","1","1","5","6","34472","2017-09-15 13:58:46","5884"
"AV8O84CPC5TNI","caus_thomas_all_v2","3R6P78PK7KC5OCHPYEWUOFFHU7LTGM","3","0","0","5","1","43296","2017-09-15 13:58:51","5885"
"A3N7HXP3MI8U29","caus_thomas_all_v2","3RGU30DZTA9B2JH6XNGLZEC5SR6MJI","8","0","0","2","10","40442","2017-09-15 13:58:52","5886"
"A2W8QHBWSI86PC","caus_thomas_all_v2","3PDJHANYK5HDMA1OM76JY5Z4PZNH6Y","5","0","0","2","4","28748","2017-09-15 13:58:58","5887"
"A2V3CQ0WPQTTYP","caus_thomas_all_v2","3K4J6M3CXEU09GIGSE5DTAPP6I0GAO","1","2","2","7","2","19071","2017-09-15 13:59:06","5888"
"A2PRF5G21RC5G3","caus_thomas_all_v2","38BQUHLA9W1P3U83D08Q7ATRRLGMO1","1","0","0","5","4","33611","2017-09-15 13:59:10","5889"
"A3N7HXP3MI8U29","caus_thomas_all_v2","3RGU30DZTA9B2JH6XNGLZEC5SR6MJI","2","1","1","3","8","17969","2017-09-15 13:59:11","5890"
"A2W8QHBWSI86PC","caus_thomas_all_v2","3PDJHANYK5HDMA1OM76JY5Z4PZNH6Y","2","1","1","5","2","12768","2017-09-15 13:59:12","5891"
"ACPZ5IHCZF700
ACPZ5IHCZF700
ACPZ5IHCZF700
ACPZ5IHCZF700","caus_thomas_all_v2","3VP0C6EFSGXZEO2ZD4MWQA706LMM6C","6","0","0","2","7","30059","2017-09-15 13:59:13","5892"
"AV8O84CPC5TNI","caus_thomas_all_v2","3R6P78PK7KC5OCHPYEWUOFFHU7LTGM","3","1","1","8","8","20717","2017-09-15 13:59:13","5893"
"AAXOAPIBFQUCB","caus_thomas_all_v2","3IHR8NYAM72RK4VYMWL9AGHHFZP4P3","7","0","0","4","7","207072","2017-09-15 13:59:15","5894"
"A2V3CQ0WPQTTYP","caus_thomas_all_v2","3K4J6M3CXEU09GIGSE5DTAPP6I0GAO","1","3","3","8","3","10056","2017-09-15 13:59:17","5895"
"A2W8QHBWSI86PC","caus_thomas_all_v2","3PDJHANYK5HDMA1OM76JY5Z4PZNH6Y","0","2","2","10","7","10532","2017-09-15 13:59:24","5896"
"A1710X6OIQP62Q","caus_thomas_all_v2","3YOH7BII098P3QHXT0HONPVVY9IKVW","4","0","0","7","3","31443","2017-09-15 13:59:26","5897"
"A3N7HXP3MI8U29","caus_thomas_all_v2","3RGU30DZTA9B2JH6XNGLZEC5SR6MJI","2","2","2","5","9","18105","2017-09-15 13:59:30","5898"
"A2V3CQ0WPQTTYP","caus_thomas_all_v2","3K4J6M3CXEU09GIGSE5DTAPP6I0GAO","1","4","4","2","5","11406","2017-09-15 13:59:30","5899"
"A2PRF5G21RC5G3","caus_thomas_all_v2","38BQUHLA9W1P3U83D08Q7ATRRLGMO1","1","1","1","8","2","20630","2017-09-15 13:59:32","5900"
"A33FBG0T3WLLHY","caus_thomas_all_v2","30X31N5D63R3ZLR7NEZUIO8SUTQASY","8","0","0","2","9","42248","2017-09-15 13:59:32","5901"
"ACPZ5IHCZF700
ACPZ5IHCZF700
ACPZ5IHCZF700
ACPZ5IHCZF700","caus_thomas_all_v2","3VP0C6EFSGXZEO2ZD4MWQA706LMM6C","5","1","1","5","1","22774","2017-09-15 13:59:36","5902"
"AAXOAPIBFQUCB","caus_thomas_all_v2","3IHR8NYAM72RK4VYMWL9AGHHFZP4P3","4","1","1","3","9","20866","2017-09-15 13:59:37","5903"
"A2W8QHBWSI86PC","caus_thomas_all_v2","3PDJHANYK5HDMA1OM76JY5Z4PZNH6Y","6","3","3","6","8","12756","2017-09-15 13:59:37","5904"
"A3N7HXP3MI8U29","caus_thomas_all_v2","3RGU30DZTA9B2JH6XNGLZEC5SR6MJI","1","3","3","9","2","13466","2017-09-15 13:59:44","5905"
"A2PRF5G21RC5G3","caus_thomas_all_v2","38BQUHLA9W1P3U83D08Q7ATRRLGMO1","1","2","2","4","7","12637","2017-09-15 13:59:45","5906"
"AV8O84CPC5TNI","caus_thomas_all_v2","3R6P78PK7KC5OCHPYEWUOFFHU7LTGM","3","2","2","4","2","31431","2017-09-15 13:59:45","5907"
"ALOYY3E72AQ1K","caus_thomas_all_v2","33NF62TLXJ3GCVH3CB35K1K13MBKJB","4","0","0","3","8","12169","2017-09-15 13:59:47","5908"
"A33FBG0T3WLLHY","caus_thomas_all_v2","30X31N5D63R3ZLR7NEZUIO8SUTQASY","8","1","1","8","5","14214","2017-09-15 13:59:47","5909"
"ACPZ5IHCZF700
ACPZ5IHCZF700
ACPZ5IHCZF700
ACPZ5IHCZF700","caus_thomas_all_v2","3VP0C6EFSGXZEO2ZD4MWQA706LMM6C","0","2","2","10","8","10717","2017-09-15 13:59:48","5910"
"A2W8QHBWSI86PC","caus_thomas_all_v2","3PDJHANYK5HDMA1OM76JY5Z4PZNH6Y","5","4","4","4","6","12237","2017-09-15 13:59:51","5911"
"A1710X6OIQP62Q","caus_thomas_all_v2","3YOH7BII098P3QHXT0HONPVVY9IKVW","7","1","1","1","8","24419","2017-09-15 13:59:51","5912"
"AAXOAPIBFQUCB","caus_thomas_all_v2","3IHR8NYAM72RK4VYMWL9AGHHFZP4P3","8","2","2","6","10","13744","2017-09-15 13:59:51","5913"
"A3N7HXP3MI8U29","caus_thomas_all_v2","3RGU30DZTA9B2JH6XNGLZEC5SR6MJI","4","4","4","6","5","6458","2017-09-15 13:59:52","5914"
"AV8O84CPC5TNI","caus_thomas_all_v2","3R6P78PK7KC5OCHPYEWUOFFHU7LTGM","3","3","3","10","7","7957","2017-09-15 13:59:54","5915"
"ALOYY3E72AQ1K","caus_thomas_all_v2","33NF62TLXJ3GCVH3CB35K1K13MBKJB","4","1","1","1","2","7632","2017-09-15 13:59:56","5916"
"A33FBG0T3WLLHY","caus_thomas_all_v2","30X31N5D63R3ZLR7NEZUIO8SUTQASY","5","2","2","9","1","8698","2017-09-15 13:59:57","5917"
"A3JTR1DJ44YYQB","caus_thomas_all_v2","3MTMREQS4VJW628G7J9VFDBD06QWA3","8","0","0","1","6","63540","2017-09-15 14:00:00","5918"
"A34L4JED8UAIXC","caus_thomas_all_v2","3RWE2M8QWHBAIV1KNGLFUOM9Y8AN0C","0","0","0","10","7","61750","2017-09-15 14:00:00","5919"
"AV8O84CPC5TNI","caus_thomas_all_v2","3R6P78PK7KC5OCHPYEWUOFFHU7LTGM","3","4","4","6","5","4805","2017-09-15 14:00:00","5920"
"A3P9S0QBN7EZ83","caus_thomas_all_v2","3COPXFW7XBDCY6K17O8PHX6DCLHPKG","0","0","0","4","6","26335","2017-09-15 14:00:02","5921"
"A2PRF5G21RC5G3","caus_thomas_all_v2","38BQUHLA9W1P3U83D08Q7ATRRLGMO1","3","3","3","7","9","17355","2017-09-15 14:00:04","5922"
"ALOYY3E72AQ1K","caus_thomas_all_v2","33NF62TLXJ3GCVH3CB35K1K13MBKJB","4","2","2","9","7","7339","2017-09-15 14:00:04","5923"
"A1710X6OIQP62Q","caus_thomas_all_v2","3YOH7BII098P3QHXT0HONPVVY9IKVW","4","2","2","2","2","12832","2017-09-15 14:00:05","5924"
"AAXOAPIBFQUCB","caus_thomas_all_v2","3IHR8NYAM72RK4VYMWL9AGHHFZP4P3","3","3","3","9","1","13192","2017-09-15 14:00:06","5925"
"ALOYY3E72AQ1K","caus_thomas_all_v2","33NF62TLXJ3GCVH3CB35K1K13MBKJB","4","3","3","5","1","3525","2017-09-15 14:00:09","5926"
"ALOYY3E72AQ1K","caus_thomas_all_v2","33NF62TLXJ3GCVH3CB35K1K13MBKJB","4","4","4","8","3","4315","2017-09-15 14:00:14","5927"
"AAXOAPIBFQUCB","caus_thomas_all_v2","3IHR8NYAM72RK4VYMWL9AGHHFZP4P3","6","4","4","5","4","8399","2017-09-15 14:00:15","5928"
"A2PRF5G21RC5G3","caus_thomas_all_v2","38BQUHLA9W1P3U83D08Q7ATRRLGMO1","1","4","4","2","8","10798","2017-09-15 14:00:15","5929"
"A33FBG0T3WLLHY","caus_thomas_all_v2","30X31N5D63R3ZLR7NEZUIO8SUTQASY","6","3","3","4","4","19616","2017-09-15 14:00:17","5930"
"A3P9S0QBN7EZ83","caus_thomas_all_v2","3COPXFW7XBDCY6K17O8PHX6DCLHPKG","0","1","1","10","4","16062","2017-09-15 14:00:19","5931"
"A1710X6OIQP62Q","caus_thomas_all_v2","3YOH7BII098P3QHXT0HONPVVY9IKVW","0","3","3","10","5","15135","2017-09-15 14:00:21","5932"
"A3JTR1DJ44YYQB","caus_thomas_all_v2","3MTMREQS4VJW628G7J9VFDBD06QWA3","8","1","1","9","9","24621","2017-09-15 14:00:25","5933"
"A2I6VTTE8F846Q","caus_thomas_all_v2","3NGI5ARFTT6AS5YFZE27CIAE3FI1PQ","3","0","0","3","3","27840","2017-09-15 14:00:25","5934"
"A33FBG0T3WLLHY","caus_thomas_all_v2","30X31N5D63R3ZLR7NEZUIO8SUTQASY","6","4","4","1","2","9322","2017-09-15 14:00:28","5935"
"A34L4JED8UAIXC","caus_thomas_all_v2","3RWE2M8QWHBAIV1KNGLFUOM9Y8AN0C","1","1","1","9","1","26762","2017-09-15 14:00:28","5936"
"A1710X6OIQP62Q","caus_thomas_all_v2","3YOH7BII098P3QHXT0HONPVVY9IKVW","8","4","4","3","10","6414","2017-09-15 14:00:28","5937"
"A3P9S0QBN7EZ83","caus_thomas_all_v2","3COPXFW7XBDCY6K17O8PHX6DCLHPKG","0","2","2","5","2","10342","2017-09-15 14:00:31","5938"
"A2I6VTTE8F846Q","caus_thomas_all_v2","3NGI5ARFTT6AS5YFZE27CIAE3FI1PQ","8","1","1","8","9","13058","2017-09-15 14:00:40","5939"
"A3P9S0QBN7EZ83","caus_thomas_all_v2","3COPXFW7XBDCY6K17O8PHX6DCLHPKG","0","3","3","8","1","8392","2017-09-15 14:00:40","5940"
"ANEM435BSW3XU","caus_thomas_all_v2","3FTF2T8WLRJI1JYBFDVVJI0TUO8W9O","4","0","0","10","7","39208","2017-09-15 14:00:45","5941"
"
A1KJE75LL545EI
","caus_thomas_all_v2","3XUHV3NRVKZH361AHOWE6ZL4T4CH5I","0","0","0","8","7","123860","2017-09-15 14:00:45","5942"
"A2I6VTTE8F846Q","caus_thomas_all_v2","3NGI5ARFTT6AS5YFZE27CIAE3FI1PQ","5","2","2","5","1","8633","2017-09-15 14:00:49","5943"
"A3P9S0QBN7EZ83","caus_thomas_all_v2","3COPXFW7XBDCY6K17O8PHX6DCLHPKG","0","4","4","6","9","8236","2017-09-15 14:00:49","5944"
"ANEM435BSW3XU","caus_thomas_all_v2","3FTF2T8WLRJI1JYBFDVVJI0TUO8W9O","1","1","1","2","9","6285","2017-09-15 14:00:52","5945"
"A34L4JED8UAIXC","caus_thomas_all_v2","3RWE2M8QWHBAIV1KNGLFUOM9Y8AN0C","5","2","2","1","2","24265","2017-09-15 14:00:53","5946"
"ANEM435BSW3XU","caus_thomas_all_v2","3FTF2T8WLRJI1JYBFDVVJI0TUO8W9O","6","2","2","5","2","2440","2017-09-15 14:00:55","5947"
"ANEM435BSW3XU","caus_thomas_all_v2","3FTF2T8WLRJI1JYBFDVVJI0TUO8W9O","3","3","3","9","5","2431","2017-09-15 14:00:59","5948"
"A1C5D5EN2GF41P","caus_thomas_all_v2","3QL2OFSM96JUCNW0ZWEZPPOA7X8CNV","0","0","0","1","4","26303","2017-09-15 14:01:00","5949"
"A2ZBYVQLDUZOV7","caus_thomas_all_v2","3BGYGHDBBXLLPJF5GKR9LOCQKB422L","8","0","0","8","2","42869","2017-09-15 14:01:00","5950"
"A38XRCVYVF4A31","caus_thomas_all_v2","3Z4AIRP3C6EF1E06L5CO6VWH5ER1XE","5","0","0","9","4","42984","2017-09-15 14:01:01","5951"
"A2I6VTTE8F846Q","caus_thomas_all_v2","3NGI5ARFTT6AS5YFZE27CIAE3FI1PQ","2","3","3","2","10","12313","2017-09-15 14:01:03","5952"
"ANEM435BSW3XU","caus_thomas_all_v2","3FTF2T8WLRJI1JYBFDVVJI0TUO8W9O","4","4","4","8","6","3579","2017-09-15 14:01:03","5953"
"
A1KJE75LL545EI
","caus_thomas_all_v2","3XUHV3NRVKZH361AHOWE6ZL4T4CH5I","0","1","1","5","1","18051","2017-09-15 14:01:04","5954"
"A2I6VTTE8F846Q","caus_thomas_all_v2","3NGI5ARFTT6AS5YFZE27CIAE3FI1PQ","5","4","4","6","6","8565","2017-09-15 14:01:12","5955"
"A34L4JED8UAIXC","caus_thomas_all_v2","3RWE2M8QWHBAIV1KNGLFUOM9Y8AN0C","5","3","3","3","4","20046","2017-09-15 14:01:14","5956"
"
A1KJE75LL545EI
","caus_thomas_all_v2","3XUHV3NRVKZH361AHOWE6ZL4T4CH5I","0","2","2","1","9","9792","2017-09-15 14:01:14","5957"
"A2ZBYVQLDUZOV7","caus_thomas_all_v2","3BGYGHDBBXLLPJF5GKR9LOCQKB422L","8","1","1","10","6","17695","2017-09-15 14:01:19","5958"
"A38XRCVYVF4A31","caus_thomas_all_v2","3Z4AIRP3C6EF1E06L5CO6VWH5ER1XE","5","1","1","1","6","17262","2017-09-15 14:01:19","5959"
"AHF0I035D5WYQ","caus_thomas_all_v2","3WJ1OXY92AHLG1CY9GTP1X8RIZOA83","2","0","0","5","1","26202","2017-09-15 14:01:22","5960"
"
A1KJE75LL545EI
","caus_thomas_all_v2","3XUHV3NRVKZH361AHOWE6ZL4T4CH5I","0","3","3","7","4","7878","2017-09-15 14:01:23","5961"
"A34L4JED8UAIXC","caus_thomas_all_v2","3RWE2M8QWHBAIV1KNGLFUOM9Y8AN0C","2","4","4","6","3","11552","2017-09-15 14:01:27","5962"
"A1C5D5EN2GF41P","caus_thomas_all_v2","3QL2OFSM96JUCNW0ZWEZPPOA7X8CNV","0","1","1","8","3","27458","2017-09-15 14:01:28","5963"
"A2ZBYVQLDUZOV7","caus_thomas_all_v2","3BGYGHDBBXLLPJF5GKR9LOCQKB422L","7","2","2","4","4","9880","2017-09-15 14:01:30","5964"
"A3L0DCUXI7X3A9","caus_thomas_all_v2","33IZTU6J812FVYZ0YOR82WJQVE3SXO","3","0","0","9","9","28395","2017-09-15 14:01:30","5965"
"
A1KJE75LL545EI
","caus_thomas_all_v2","3XUHV3NRVKZH361AHOWE6ZL4T4CH5I","-1","4","4","4","5","9344","2017-09-15 14:01:34","5966"
"A3JTR1DJ44YYQB","caus_thomas_all_v2","3MTMREQS4VJW628G7J9VFDBD06QWA3","8","2","2","7","1","70367","2017-09-15 14:01:37","5967"
"A38XRCVYVF4A31","caus_thomas_all_v2","3Z4AIRP3C6EF1E06L5CO6VWH5ER1XE","8","2","2","4","10","17433","2017-09-15 14:01:38","5968"
"AHF0I035D5WYQ","caus_thomas_all_v2","3WJ1OXY92AHLG1CY9GTP1X8RIZOA83","3","1","1","4","3","19459","2017-09-15 14:01:42","5969"
"A2ZBYVQLDUZOV7","caus_thomas_all_v2","3BGYGHDBBXLLPJF5GKR9LOCQKB422L","7","3","3","6","7","14885","2017-09-15 14:01:45","5970"
"A1C5D5EN2GF41P","caus_thomas_all_v2","3QL2OFSM96JUCNW0ZWEZPPOA7X8CNV","0","2","2","2","9","16602","2017-09-15 14:01:46","5971"
"A3L0DCUXI7X3A9","caus_thomas_all_v2","33IZTU6J812FVYZ0YOR82WJQVE3SXO","8","1","1","7","10","16396","2017-09-15 14:01:48","5972"
"A29593QY8K2F9N","caus_thomas_all_v2","34Z02EIMISE8D864KC7R3NS1NQWT0J","5","0","0","1","9","24315","2017-09-15 14:01:49","5973"
"A2OK71FR9Y7RER","caus_thomas_all_v2","37FMASSAYCSJOHT3OG5C9XMB3DEIBE","5","0","0","7","6","23451","2017-09-15 14:01:50","5974"
"A38XRCVYVF4A31","caus_thomas_all_v2","3Z4AIRP3C6EF1E06L5CO6VWH5ER1XE","5","3","3","5","2","14122","2017-09-15 14:01:53","5975"
"AHF0I035D5WYQ","caus_thomas_all_v2","3WJ1OXY92AHLG1CY9GTP1X8RIZOA83","8","2","2","3","10","9907","2017-09-15 14:01:53","5976"
"A3L0DCUXI7X3A9","caus_thomas_all_v2","33IZTU6J812FVYZ0YOR82WJQVE3SXO","0","2","2","10","7","8268","2017-09-15 14:01:57","5977"
"A2ZBYVQLDUZOV7","caus_thomas_all_v2","3BGYGHDBBXLLPJF5GKR9LOCQKB422L","7","4","4","3","8","11228","2017-09-15 14:01:58","5978"
"A29593QY8K2F9N","caus_thomas_all_v2","34Z02EIMISE8D864KC7R3NS1NQWT0J","4","1","1","7","8","8633","2017-09-15 14:01:59","5979"
"A2OK71FR9Y7RER","caus_thomas_all_v2","37FMASSAYCSJOHT3OG5C9XMB3DEIBE","4","1","1","2","2","7307","2017-09-15 14:01:59","5980"
"A24XBVPC9MYJVX","caus_thomas_all_v2","3WETL7AQWT929YUB237C25KUAZV530","4","0","0","7","9","39239","2017-09-15 14:01:59","5981"
"A1C5D5EN2GF41P","caus_thomas_all_v2","3QL2OFSM96JUCNW0ZWEZPPOA7X8CNV","0","3","3","10","1","18147","2017-09-15 14:02:05","5982"
"A38XRCVYVF4A31","caus_thomas_all_v2","3Z4AIRP3C6EF1E06L5CO6VWH5ER1XE","0","4","4","10","1","11050","2017-09-15 14:02:05","5983"
"A2MH7VT69O390F","caus_thomas_all_v2","3F6HPJW4JD171ZDCU4GG9VSFOIY2W2","0","0","0","10","8","26734","2017-09-15 14:02:05","5984"
"A29593QY8K2F9N","caus_thomas_all_v2","34Z02EIMISE8D864KC7R3NS1NQWT0J","2","2","2","5","2","6913","2017-09-15 14:02:07","5985"
"A2OK71FR9Y7RER","caus_thomas_all_v2","37FMASSAYCSJOHT3OG5C9XMB3DEIBE","-1","2","2","1","1","7389","2017-09-15 14:02:07","5986"
"A3L0DCUXI7X3A9","caus_thomas_all_v2","33IZTU6J812FVYZ0YOR82WJQVE3SXO","1","3","3","8","5","10390","2017-09-15 14:02:08","5987"
"AHF0I035D5WYQ","caus_thomas_all_v2","3WJ1OXY92AHLG1CY9GTP1X8RIZOA83","2","3","3","6","2","15197","2017-09-15 14:02:09","5988"
"A3JTR1DJ44YYQB","caus_thomas_all_v2","3MTMREQS4VJW628G7J9VFDBD06QWA3","8","3","3","2","2","35161","2017-09-15 14:02:13","5989"
"A24XBVPC9MYJVX","caus_thomas_all_v2","3WETL7AQWT929YUB237C25KUAZV530","2","1","1","10","3","16012","2017-09-15 14:02:16","5990"
"A1C5D5EN2GF41P","caus_thomas_all_v2","3QL2OFSM96JUCNW0ZWEZPPOA7X8CNV","0","4","4","4","2","11381","2017-09-15 14:02:17","5991"
"A2OK71FR9Y7RER","caus_thomas_all_v2","37FMASSAYCSJOHT3OG5C9XMB3DEIBE","2","3","3","3","8","9222","2017-09-15 14:02:17","5992"
"A3L0DCUXI7X3A9","caus_thomas_all_v2","33IZTU6J812FVYZ0YOR82WJQVE3SXO","0","4","4","5","2","8859","2017-09-15 14:02:18","5993"
"A29593QY8K2F9N","caus_thomas_all_v2","34Z02EIMISE8D864KC7R3NS1NQWT0J","0","3","3","10","1","10595","2017-09-15 14:02:18","5994"
"A2MH7VT69O390F","caus_thomas_all_v2","3F6HPJW4JD171ZDCU4GG9VSFOIY2W2","1","1","1","8","2","14358","2017-09-15 14:02:21","5995"
"AHF0I035D5WYQ","caus_thomas_all_v2","3WJ1OXY92AHLG1CY9GTP1X8RIZOA83","7","4","4","1","8","15025","2017-09-15 14:02:25","5996"
"A24XBVPC9MYJVX","caus_thomas_all_v2","3WETL7AQWT929YUB237C25KUAZV530","4","2","2","4","7","8844","2017-09-15 14:02:26","5997"
"A2OK71FR9Y7RER","caus_thomas_all_v2","37FMASSAYCSJOHT3OG5C9XMB3DEIBE","7","4","4","9","9","8217","2017-09-15 14:02:27","5998"
"A2MH7VT69O390F","caus_thomas_all_v2","3F6HPJW4JD171ZDCU4GG9VSFOIY2W2","7","2","2","4","10","9597","2017-09-15 14:02:31","5999"
"A3HXEV518E9PZQ
A3HXEV518E9PZQ

A3HXEV518E9PZQ

A3HXEV518E9PZQ","caus_thomas_all_v2","37UQDCYH6XW18BADA6SFJKQ9SPIV71","3","0","0","4","3","37027","2017-09-15 14:02:33","6000"
"A3JTR1DJ44YYQB","caus_thomas_all_v2","3MTMREQS4VJW628G7J9VFDBD06QWA3","8","4","4","10","4","20195","2017-09-15 14:02:34","6001"
"A29593QY8K2F9N","caus_thomas_all_v2","34Z02EIMISE8D864KC7R3NS1NQWT0J","5","4","4","8","3","15347","2017-09-15 14:02:35","6002"
"A24XBVPC9MYJVX","caus_thomas_all_v2","3WETL7AQWT929YUB237C25KUAZV530","5","3","3","8","10","8022","2017-09-15 14:02:35","6003"
"ARQ8PXKYRL90Q","caus_thomas_all_v2","3I7DHKZYGN1XPAA4MY8E3E9RDPZF5I","6","0","0","7","10","20721","2017-09-15 14:02:40","6004"
"A2MH7VT69O390F","caus_thomas_all_v2","3F6HPJW4JD171ZDCU4GG9VSFOIY2W2","2","3","3","9","6","9419","2017-09-15 14:02:42","6005"
"A24XBVPC9MYJVX","caus_thomas_all_v2","3WETL7AQWT929YUB237C25KUAZV530","4","4","4","6","5","8301","2017-09-15 14:02:44","6006"
"A3HXEV518E9PZQ
A3HXEV518E9PZQ

A3HXEV518E9PZQ

A3HXEV518E9PZQ","caus_thomas_all_v2","37UQDCYH6XW18BADA6SFJKQ9SPIV71","8","1","1","6","10","16533","2017-09-15 14:02:50","6007"
"A2MH7VT69O390F","caus_thomas_all_v2","3F6HPJW4JD171ZDCU4GG9VSFOIY2W2","4","4","4","5","5","9269","2017-09-15 14:02:52","6008"
"ARQ8PXKYRL90Q","caus_thomas_all_v2","3I7DHKZYGN1XPAA4MY8E3E9RDPZF5I","6","1","1","5","3","11232","2017-09-15 14:02:52","6009"
"ARQ8PXKYRL90Q","caus_thomas_all_v2","3I7DHKZYGN1XPAA4MY8E3E9RDPZF5I","7","2","2","1","8","7073","2017-09-15 14:03:00","6010"
"ARQ8PXKYRL90Q","caus_thomas_all_v2","3I7DHKZYGN1XPAA4MY8E3E9RDPZF5I","6","3","3","3","5","5844","2017-09-15 14:03:07","6011"
"A3HXEV518E9PZQ
A3HXEV518E9PZQ

A3HXEV518E9PZQ

A3HXEV518E9PZQ","caus_thomas_all_v2","37UQDCYH6XW18BADA6SFJKQ9SPIV71","4","2","2","2","4","18432","2017-09-15 14:03:10","6012"
"ARQ8PXKYRL90Q","caus_thomas_all_v2","3I7DHKZYGN1XPAA4MY8E3E9RDPZF5I","6","4","4","2","7","6245","2017-09-15 14:03:14","6013"
"A3HXEV518E9PZQ
A3HXEV518E9PZQ

A3HXEV518E9PZQ

A3HXEV518E9PZQ","caus_thomas_all_v2","37UQDCYH6XW18BADA6SFJKQ9SPIV71","2","3","3","3","1","13961","2017-09-15 14:03:25","6014"
"A18U9X55D94R6P","caus_thomas_all_v2","39ZSFO5CA8XUFRMF6P77QOTZ5DAJU8","4","0","0","8","6","18021","2017-09-15 14:03:34","6015"
"A3HXEV518E9PZQ
A3HXEV518E9PZQ

A3HXEV518E9PZQ

A3HXEV518E9PZQ","caus_thomas_all_v2","37UQDCYH6XW18BADA6SFJKQ9SPIV71","0","4","4","10","5","11515","2017-09-15 14:03:37","6016"
"A18U9X55D94R6P","caus_thomas_all_v2","39ZSFO5CA8XUFRMF6P77QOTZ5DAJU8","5","1","1","5","4","7522","2017-09-15 14:03:42","6017"
"A18U9X55D94R6P","caus_thomas_all_v2","39ZSFO5CA8XUFRMF6P77QOTZ5DAJU8","0","2","2","10","9","3080","2017-09-15 14:03:46","6018"
"A18U9X55D94R6P","caus_thomas_all_v2","39ZSFO5CA8XUFRMF6P77QOTZ5DAJU8","1","3","3","9","8","5297","2017-09-15 14:03:52","6019"
"A193FEHCOS0E2J","caus_thomas_all_v2","3WQQ9FUS6AVQZBHQFUTLW8SX0H98BW","5","0","0","7","8","24637","2017-09-15 14:03:57","6020"
"A18U9X55D94R6P","caus_thomas_all_v2","39ZSFO5CA8XUFRMF6P77QOTZ5DAJU8","5","4","4","4","7","3765","2017-09-15 14:03:57","6021"
"A193FEHCOS0E2J","caus_thomas_all_v2","3WQQ9FUS6AVQZBHQFUTLW8SX0H98BW","1","1","1","8","3","11932","2017-09-15 14:04:10","6022"
"A193FEHCOS0E2J","caus_thomas_all_v2","3WQQ9FUS6AVQZBHQFUTLW8SX0H98BW","0","2","2","10","4","7077","2017-09-15 14:04:18","6023"
"A193FEHCOS0E2J","caus_thomas_all_v2","3WQQ9FUS6AVQZBHQFUTLW8SX0H98BW","5","3","3","3","5","6308","2017-09-15 14:04:25","6024"
"A3T4KZG7UPS8EI","caus_thomas_all_v2","34T446B1C0FRRR4TYQC1EDSXZ4XC0K","4","0","0","5","4","68812","2017-09-15 14:04:37","6025"
"A193FEHCOS0E2J","caus_thomas_all_v2","3WQQ9FUS6AVQZBHQFUTLW8SX0H98BW","5","4","4","4","6","10941","2017-09-15 14:04:37","6026"
"A3T4KZG7UPS8EI","caus_thomas_all_v2","34T446B1C0FRRR4TYQC1EDSXZ4XC0K","4","1","1","10","1","36269","2017-09-15 14:05:14","6027"
"AAU61MG2R6RH0","caus_thomas_all_v2","3EA3QWIZ4IWJK3NKO2WX9RSX9KDIT3","8","0","0","2","10","47166","2017-09-15 14:05:14","6028"
"A30MP4LXV4MIFD","caus_thomas_all_v2","34YB12FSQYP1BHR5PHVI21KP0ZQGM9","1","0","0","8","2","57513","2017-09-15 14:05:15","6029"
"A3T4KZG7UPS8EI","caus_thomas_all_v2","34T446B1C0FRRR4TYQC1EDSXZ4XC0K","4","2","2","7","6","8364","2017-09-15 14:05:23","6030"
"A3T4KZG7UPS8EI","caus_thomas_all_v2","34T446B1C0FRRR4TYQC1EDSXZ4XC0K","4","3","3","4","2","10837","2017-09-15 14:05:35","6031"
"A3T4KZG7UPS8EI","caus_thomas_all_v2","34T446B1C0FRRR4TYQC1EDSXZ4XC0K","4","4","4","3","10","7943","2017-09-15 14:05:44","6032"
"A30MP4LXV4MIFD","caus_thomas_all_v2","34YB12FSQYP1BHR5PHVI21KP0ZQGM9","5","1","1","1","4","29396","2017-09-15 14:05:45","6033"
"AAU61MG2R6RH0","caus_thomas_all_v2","3EA3QWIZ4IWJK3NKO2WX9RSX9KDIT3","6","1","1","4","7","30613","2017-09-15 14:05:46","6034"
"A1FFMPJ0W6FHQ8","caus_thomas_all_v2","3EO896NRAWWFFE7Q6KHXLS7XMZ3TJR","8","0","0","1","10","36541","2017-09-15 14:05:49","6035"
"A3NRXBYR4SY2KB","caus_thomas_all_v2","3AMW0RGHOD3D6C5441059PNH6GMPNL","1","0","0","3","7","41885","2017-09-15 14:05:51","6036"
"A30MP4LXV4MIFD","caus_thomas_all_v2","34YB12FSQYP1BHR5PHVI21KP0ZQGM9","1","2","2","10","10","15149","2017-09-15 14:06:01","6037"
"A3NRXBYR4SY2KB","caus_thomas_all_v2","3AMW0RGHOD3D6C5441059PNH6GMPNL","0","1","1","9","3","10851","2017-09-15 14:06:03","6038"
"A2NMWBVYWN4O51","caus_thomas_all_v2","3OXV7EAXLERYS2UP7MHHUBYU6U436C","3","0","0","5","2","29741","2017-09-15 14:06:03","6039"
"A3AXFI49IVUMNW","caus_thomas_all_v2","3SNVL38CI4TT4HBX2JMJXX76D23CKQ","8","0","0","7","2","42568","2017-09-15 14:06:08","6040"
"AAU61MG2R6RH0","caus_thomas_all_v2","3EA3QWIZ4IWJK3NKO2WX9RSX9KDIT3","4","2","2","9","9","21711","2017-09-15 14:06:09","6041"
"A30MP4LXV4MIFD","caus_thomas_all_v2","34YB12FSQYP1BHR5PHVI21KP0ZQGM9","1","3","3","7","1","8025","2017-09-15 14:06:10","6042"
"A3NRXBYR4SY2KB","caus_thomas_all_v2","3AMW0RGHOD3D6C5441059PNH6GMPNL","4","2","2","6","6","7889","2017-09-15 14:06:12","6043"
"A1FFMPJ0W6FHQ8","caus_thomas_all_v2","3EO896NRAWWFFE7Q6KHXLS7XMZ3TJR","5","1","1","3","4","22948","2017-09-15 14:06:12","6044"
"A2NMWBVYWN4O51","caus_thomas_all_v2","3OXV7EAXLERYS2UP7MHHUBYU6U436C","5","1","1","2","3","11355","2017-09-15 14:06:15","6045"
"AQ7YHAV5M17C0","caus_thomas_all_v2","3QECW5O0KH278FS5HID3KIOS4Y85TH","2","0","0","6","1","32893","2017-09-15 14:06:19","6046"
"AAU61MG2R6RH0","caus_thomas_all_v2","3EA3QWIZ4IWJK3NKO2WX9RSX9KDIT3","3","3","3","5","4","10494","2017-09-15 14:06:20","6047"
"A30MP4LXV4MIFD","caus_thomas_all_v2","34YB12FSQYP1BHR5PHVI21KP0ZQGM9","6","4","4","3","5","9568","2017-09-15 14:06:21","6048"
