"subject","version","assignmentId","rating","question_ind","trial_ind","focal_high","alt_high","alt2_high","greenSecond","rt","stamp","id"
"AHSQOWJG4HA3S","caus_thomas_boxes_v2","39GXDJN2OTF58PFWKBKLXKM47TV8VG","3","0","0","0","1","1",,"13690","2017-10-04 15:52:58","21223"
"A610SH5RY1NG1","caus_thomas_boxes_v2","3P1L2B7AD1Q5XCQIDO7B7XE2V0XOLG","3","0","0","1","0","1",,"8626","2017-10-04 15:53:01","21224"
"AZEGZ5ZVM6P5A","caus_thomas_boxes_v2","3PJ71Z61R43P0II8IP6AQSAZ2V691H","6","0","0","1","0","1",,"4141","2017-10-04 15:53:02","21225"
"A23KAJRDVCVGOE","caus_thomas_boxes_v2","3PXX5PX6LXZ4IZA5CSDZSZYSUPFBAH","3","0","0","0","0","1",,"11846","2017-10-04 15:53:26","21226"
" A3HJ83U3Y7Y78S","caus_thomas_boxes_v2","3IFS6Q0HJIKI53A5Z2R7ZMWBBL6IST","4","0","0","1","1","1",,"17317","2017-10-04 15:53:31","21227"
"A3DRKJIAWYMA9F","caus_thomas_boxes_v2","3OONKJ5DKCKTK346MBIHTUIXJ6JBOG","7","0","0","1","0","1",,"12084","2017-10-04 15:53:32","21228"
"A2P5IL629E7EC8","caus_thomas_boxes_v2","3EICBYG644XYTX5FKYM7WI7T2X9JCC","4","0","0","1","1","1",,"18742","2017-10-04 15:53:36","21229"
"A19BMRBO5UAD6H","caus_thomas_boxes_v2","3T111IHZ5ERDTNHPGJLPWJSC6T0R9V","3","0","0","0","0","0",,"21076","2017-10-04 15:53:51","21230"
"A25894CV44ZZ0V","caus_thomas_boxes_v2","3ZWFC4W1UU8MUX82J5LH6FEN9RVRFN","6","0","0","0","0","1",,"24005","2017-10-04 15:53:53","21231"
"A36CZ0F88ELFWF","caus_thomas_boxes_v2","37XITHEISWAFRLOSS3VGY9TKCE3RCC","4","0","0","0","0","0",,"19317","2017-10-04 15:53:55","21232"
"AJ9N1D8B96693","caus_thomas_boxes_v2","3ND9UOO81K3D2LZK4AYLORROY2WLWP","3","0","0","1","0","1",,"22768","2017-10-04 15:53:58","21233"
"A1YA3HNCUJSJF4","caus_thomas_boxes_v2","3HMIGG0U4L7MCJA1PM754JQYPAX8YP","2","0","0","1","1","0",,"19565","2017-10-04 15:54:06","21234"
"AK81F0NOBFJS3","caus_thomas_boxes_v2","3W8CV64QJ2004T3MKE9VIFQ6JK2H9O","7","0","0","0","1","1",,"23887","2017-10-04 15:54:18","21235"
"ANPTDUX6LOGYY","caus_thomas_boxes_v2","3YJ6NA41JBHHNMEJP38DGI601GOJPQ","1","0","0","1","0","0",,"24823","2017-10-04 15:54:19","21236"
"A320QA9HJFUOZO","caus_thomas_boxes_v2","3VFJCI1K4Z0S8X4XUPRZO0EZA6VGRB","5","0","0","1","0","0",,"27960","2017-10-04 15:54:25","21237"
"A3HV23GQLC4GXH","caus_thomas_boxes_v2","3OS46CRSLF0I4BW8RWNND6QD1Y56VS","0","0","0","0","1","0",,"30178","2017-10-04 15:54:37","21238"
"AJRY9ALX8069Y","caus_thomas_boxes_v2","3C44YUNSI1Q4K0ERF7M2DKBNWWRDP6","7","0","0","0","1","1",,"29987","2017-10-04 15:54:38","21239"
"A2ZBDD2PGJ262Y","caus_thomas_boxes_v2","3W2LOLRXLBGXAJ0GKGCEMS6SHNCRKP","1","0","0","1","0","0",,"27620","2017-10-04 15:54:44","21240"
"A3454T4PU9GJM0","caus_thomas_boxes_v2","3U5NZHP4LR3LWGJT135S45QLOOKPHR","8","0","0","0","0","0",,"18349","2017-10-04 15:54:51","21241"
"A3UUK65H63DHFX","caus_thomas_boxes_v2","3JRJSWSMQHM25HN4D40F6ZQ7RC0E3O","1","0","0","1","0","0",,"21712","2017-10-04 15:54:54","21242"
"A1EBVJWBNNPUFU","caus_thomas_boxes_v2","33NF62TLXJ3GCVH3CB35K1K176IKJQ","3","0","0","0","1","0",,"14237","2017-10-04 15:54:54","21243"
"APF1EAZT104LQ","caus_thomas_boxes_v2","3K3R2QNK8B459F96KDGU1UFWDS49UH","5","0","0","0","1","1",,"9139","2017-10-04 15:54:59","21244"
"A21ZXLGZ9OBHJV","caus_thomas_boxes_v2","37U1UTWH9VNDFIYFBRFBWNX1MNI8RN","5","0","0","0","0","0",,"18966","2017-10-04 15:55:01","21245"
"A31XNLA9REVGXL","caus_thomas_boxes_v2","3BXQMRHWKZZKGZS09MKZ6GLGDRBMUT","4","0","0","1","0","1",,"14880","2017-10-04 15:55:06","21246"
"A8TFVGAEEN2EC","caus_thomas_boxes_v2","3TR2532VIPV9DGWEA794AIFJ6BYJ6K","6","0","0","0","1","0",,"16147","2017-10-04 15:55:06","21247"
"A3U15I26Q6IYP","caus_thomas_boxes_v2","378XPAWRUCEE57OBI25GEM25PFZIAX","1","0","0","1","0","0",,"22385","2017-10-04 15:55:16","21248"
"A2UNSF09FWX9S8","caus_thomas_boxes_v2","3LBXNTKX0RWXQJ31PIRHL1E07AL9X9","0","0","0","1","1","1",,"17038","2017-10-04 15:55:18","21249"
"A1MT1OXZGY8RJ2
A1MT1OXZGY8RJ2
A1MT1OXZGY8RJ2
A1MT1OXZGY8RJ2","caus_thomas_boxes_v2","3O7L7BFSHEQHVK5NY772A5SWAUXEIO","7","0","0","0","1","1",,"25874","2017-10-04 15:55:21","21250"
"A2C4R0TBPZGWTD","caus_thomas_boxes_v2","3BGYGHDBBXLLPJF5GKR9LOCQOVB220","4","0","0","1","0","1",,"11018","2017-10-04 15:55:29","21251"
"A3LKYZLQ40H8D6","caus_thomas_boxes_v2","36WLNQG78ZB78CRHSXFLOIOJF4DBEC","3","0","0","0","1","0",,"28671","2017-10-04 15:55:31","21252"
"A23H7XNZHF8JQY","caus_thomas_boxes_v2","3NJM2BJS4W7UF88DFBRRTET5BWFCP5","8","0","0","0","1","1",,"15777","2017-10-04 15:55:37","21253"
"A193FEHCOS0E2J","caus_thomas_boxes_v2","3EFE17QCRC6I98ZLTK9MZAVWB8RSHA","4","0","0","1","1","1",,"18486","2017-10-04 15:55:49","21254"
"A13TXQMAQ7GPQR","caus_thomas_boxes_v2","3ITXP059PWKE0EUBHKC7BNBBO0VSJF","3","0","0","1","1","1",,"16522","2017-10-04 15:55:50","21255"
"ARR3UJTM2ZGK4","caus_thomas_boxes_v2","3IRIK4HM3ALM52Q80FSINE2OGRPC6Z","1","0","0","1","0","0",,"35045","2017-10-04 15:56:01","21256"
"A3IR7DFEKLLLO","caus_thomas_boxes_v2","3907X2AHF06HHQGBII2LH1KJZ532PN","4","0","0","1","1","1",,"10221","2017-10-04 15:56:16","21257"
"A2XMO68T3BJFFA","caus_thomas_boxes_v2","3WS1NTTKEYDYU3O3PS22MJD001VF0C","1","0","0","0","0","0",,"9963","2017-10-04 15:56:18","21258"
"A29AX5O8KL48F8","caus_thomas_boxes_v2","3X87C8JFV6CVM1YOCAWG8ONX2VNQS4","8","0","0","0","1","0",,"19063","2017-10-04 15:56:20","21259"
"APM3AUG2T9J19","caus_thomas_boxes_v2","3907X2AHF06HHQGBII2LH1KJZ52P29","5","0","0","1","1","1",,"13757","2017-10-04 15:56:26","21260"
"A18E19QXO73YM4","caus_thomas_boxes_v2","3DH6GAKTYYQ1WFBOYC7IH3N2OJ4ZYL","6","0","0","0","0","0",,"24785","2017-10-04 15:56:37","21261"
"A3D3D3F8X3NQYH","caus_thomas_boxes_v2","35USIKEBNRH5W6NZP51W3PW0FV3N6S","8","0","0","1","0","0",,"31703","2017-10-04 15:56:39","21262"
"A26NGLGGFTATVN","caus_thomas_boxes_v2","37C0GNLMHF4WAUWM0BNT7KK61R16DT","8","0","0","0","1","0",,"16522","2017-10-04 15:56:39","21263"
"A22LLCN5WBKJJI","caus_thomas_boxes_v2","3PH3VY7DJLYX7AGOJBPUW62MDB4ZWM","4","0","0","1","1","0",,"24574","2017-10-04 15:56:48","21264"
"A3ANNQ73J8M158","caus_thomas_boxes_v2","3VD82FOHKQPCU8WC0BEC4EOF1RJCOO","6","0","0","0","0","0",,"8790","2017-10-04 15:56:51","21265"
"A2ILUP6FN8HKKC","caus_thomas_boxes_v2","3LOZAJ85YDEMQZI249C2BE6M14C2XB","6","0","0","1","1","0",,"21973","2017-10-04 15:57:03","21266"
"A39MOCMDRIOSJM","caus_thomas_boxes_v2","3C6FJU71TQUKAGHESP8A0B8NM1PUYR","4","0","0","0","1","0",,"15783","2017-10-04 15:57:10","21267"
"A1RK314J53UKIN","caus_thomas_boxes_v2","3LRKMWOKB5IBVUIH5R0N8ZMX94A2Z8","1","0","0","0","0","1",,"27149","2017-10-04 15:57:17","21268"
"A2VJZZPAHHKAOW","caus_thomas_boxes_v2","3ZGVPD4G6TI5FTCUO6KJ9MVN9HMZTW","4","0","0","0","1","1",,"14273","2017-10-04 15:57:18","21269"
"A38R7SIVV118KT","caus_thomas_boxes_v2","3OLF68YTN92UVGMLHUZVBPPD9N8AFZ","4","0","0","0","0","0",,"3539","2017-10-04 15:57:32","21270"
"AV182SXSO370E","caus_thomas_boxes_v2","3DR23U6WE5F74YLYSJ66OCU5LBDTEK","7","0","0","0","1","0",,"28353","2017-10-04 15:57:33","21271"
"A1Y0Y6U906ABT5","caus_thomas_boxes_v2","3BXQMRHWKZZKGZS09MKZ6GLGDRBUM1","5","0","0","0","1","0",,"32577","2017-10-04 15:57:35","21272"
"A1YBX7P5PY8LL","caus_thomas_boxes_v2","3L70J4KAZGNXXW8PQO45NPMSXASADO","4","0","0","1","1","1",,"27141","2017-10-04 15:57:36","21273"
"APVUZDC7WOBE7","caus_thomas_boxes_v2","3IKZ72A5B4H1FZGAQY40XV9D8U6NFV","3","0","0","0","1","0",,"22597","2017-10-04 15:57:46","21274"
"A24DSECWUBZC0Z","caus_thomas_boxes_v2","3DPNQGW4LLGJAYDT70M04GQ0OE964H","4","0","0","1","1","1",,"18265","2017-10-04 15:57:54","21275"
"A8TQSHYC5OOY4","caus_thomas_boxes_v2","3CFJTT4SXTRWM5QDBZTW4V0FO7U7IW","8","0","0","0","1","1",,"39225","2017-10-04 15:57:54","21276"
"AA3R1CNZAEH2O","caus_thomas_boxes_v2","3K9FOBBF2HKNFRQ6C97YS8EX5QSLNY","5","0","0","0","0","1",,"10195","2017-10-04 15:57:56","21277"
"A1YPKT2UP2UQ464","caus_thomas_boxes_v2","34T446B1C0FRRR4TYQC1EDSX3O40CN","6","0","0","0","1","1",,"29188","2017-10-04 15:57:58","21278"
"A1QG4N21BF61PC","caus_thomas_boxes_v2","33FOTY3KEMMRYGPBU9G1SIB78G9C11","4","0","0","0","0","1",,"168555","2017-10-04 15:58:07","21279"
"AM155T4U3RE1A","caus_thomas_boxes_v2","3137ONMDKG63ZTZS8J7ZPTFGVH6EGX","3","0","0","1","0","0",,"20336","2017-10-04 15:58:18","21280"
"AS6RFMS6SX06X","caus_thomas_boxes_v2","354P56DE9K4LGJT9GBNA8X62X5W7SO","3","0","0","0","0","1",,"49449","2017-10-04 15:58:20","21281"
"ADYMIMV1PE14V","caus_thomas_boxes_v2","326O153BMIZ0N9P16T6RJ8CJIPQDEM","4","0","0","1","1","0",,"16174","2017-10-04 15:58:51","21282"
"A25D66AC4QUW2U","caus_thomas_boxes_v2","37M28K1J0QEA0I8H0KQGQNH52UOJAA","1","0","0","1","1","0",,"35065","2017-10-04 15:59:07","21283"
"AJH2N4RI8WA6U","caus_thomas_boxes_v2","3IAS3U3I0FHFDWF1ZDKKMHFUI1O2B2","3","0","0","1","0","0",,"83261","2017-10-04 15:59:08","21284"
"A3ICC7SGEF40KR
","caus_thomas_boxes_v2","30OG32W0SUC99LGEVNKUFDODWTSEN5","5","0","0","0","1","1",,"14272","2017-10-04 15:59:15","21285"
"A3HTLXAPOBCVVO","caus_thomas_boxes_v2","39N5ACM9HEOSHA1A3RH0ROSX5BC9PL","2","0","0","1","0","1",,"19587","2017-10-04 15:59:26","21286"
"A24PTBOBOPCO6J","caus_thomas_boxes_v2","3KOPY89HM83AGX9WR5B63F3ZWKXJ3F","4","0","0","0","0","0",,"19037","2017-10-04 15:59:39","21287"
"A27HVVLSZZ13XK","caus_thomas_boxes_v2","3WT783CTPBISBE73W69QYUOGUS1CBL","6","0","0","0","0","1",,"30622","2017-10-04 15:59:47","21288"
"A2ONITCOBY4775","caus_thomas_boxes_v2","3M0BCWMB8VX1PCD8DX9RAOVJM8JBWT","0","0","0","0","1","1",,"25651","2017-10-04 16:00:06","21289"
"A2VDGWD0BBMSP2","caus_thomas_boxes_v2","3R2PKQ87NW9F78X0F5VLNDX5JWPIMI","6","0","0","0","1","1",,"28313","2017-10-04 16:00:47","21290"
"A2OL18MGK5LEO7","caus_thomas_boxes_v2","3C6FJU71TQUKAGHESP8A0B8NM1QUYS","8","0","0","0","1","0",,"11392","2017-10-04 16:00:57","21291"
"A3JT9LHWLFHNS8
","caus_thomas_boxes_v2","3YDTZAI2WXHO3CCW1UAJ9KZJG3T14E","4","0","0","0","0","1",,"28324","2017-10-04 16:01:13","21292"
"A3PTFE5MJV5DU1","caus_thomas_boxes_v2","36H9ULYP62V5W9PPB0C84OSWZA1JFN","6","0","0","0","1","0",,"15488","2017-10-04 16:01:17","21293"
"AXHB59WY3NYZ4","caus_thomas_boxes_v2","3A1PQ49WVHIIFO0RG1U2398NL8EH1F","4","0","0","1","0","1",,"23251","2017-10-04 16:01:31","21294"
"A1UCB0D27PY623","caus_thomas_boxes_v2","3OCHAWUVGOLH7FMSTFI6BASGI4XXKR","5","0","0","0","1","1",,"14673","2017-10-04 16:01:49","21295"
"A34SUZWGLXIWM8","caus_thomas_boxes_v2","386PBUZZXFYRW1ZLXBF6Z1XGW6NJLS","4","0","0","1","0","1",,"20181","2017-10-04 16:01:50","21296"
"A1XGMGFAP3RXBX","caus_thomas_boxes_v2","3FPRZHYEPY8J7S9Q8UPP63ETR74V3C","8","0","0","0","1","0",,"21590","2017-10-04 16:02:19","21297"
"A3L2FPKRD46FRW
","caus_thomas_boxes_v2","3M1CVSFP606RM5CUVAAPNOTRGPGQA8","4","0","0","0","0","0",,"23369","2017-10-04 16:02:32","21298"
"AFFRVQ2ZRY1A3","caus_thomas_boxes_v2","3ZR9AIQJUBAOWNRE5B6JVFG9BBO04B","0","0","0","0","0","1",,"37240","2017-10-04 16:02:33","21299"
"A2TTRW1EE029C7","caus_thomas_boxes_v2","3UJ1CZ6IZHQ6TFFQSI8DADS66Z25S8","4","0","0","1","1","0",,"14725","2017-10-04 16:02:39","21300"
"A002160837SWJFPIAI7L7","caus_thomas_boxes_v2","3IO1LGZLK9YKTZ0VJ3CDLS65Q0686R","8","0","0","0","1","0",,"18791","2017-10-04 16:02:43","21301"
"A3VAGJTE25UK3Q","caus_thomas_boxes_v2","3483FV8BEEK97KY63M3CB1T240E62M","2","0","0","1","0","0",,"15036","2017-10-04 16:02:59","21302"
"A1KN3TP3P2NJHC","caus_thomas_boxes_v2","3G0WWMR1UVLY6O6J4EFU9UDRFWGNQQ","0","0","0","1","0","0",,"76790","2017-10-04 16:03:13","21303"
"ASLGHXA4453BQ","caus_thomas_boxes_v2","3PB5A5BD0V7IQEKILBTTJJNZ9U3G7E","4","0","0","1","1","1",,"13050","2017-10-04 16:03:13","21304"
"A1S8DYWNS59XWB","caus_thomas_boxes_v2","37W3JXSD669X2K6JNPNBIZTK7H1WYT","6","0","0","0","1","1",,"29831","2017-10-04 16:03:24","21305"
" A2I32YL4OUGA3G
 A2I32YL4OUGA3G
 A2I32YL4OUGA3G
","caus_thomas_boxes_v2","3V5Q80FXIXSAA1BOKK5E4YHIU9C32D","7","0","0","1","0","0",,"71881","2017-10-04 16:03:35","21306"
"A1PZ1YZAQEXRSQ","caus_thomas_boxes_v2","3TR2532VIPV9DGWEA794AIFJ6B06J9","8","0","0","0","1","0",,"16598","2017-10-04 16:03:38","21307"
"ABMPX2Y2IRBMG","caus_thomas_boxes_v2","3UN61F00HWQUS0FDDT88K3NAKXHR54","5","0","0","0","0","1",,"6138","2017-10-04 16:03:40","21308"
"A2HOJ0B5A8DJVL","caus_thomas_boxes_v2","3NG53N1RLVKS35I0YZBMRSXML5W8PX","1","0","0","1","0","1",,"27711","2017-10-04 16:03:47","21309"
"A433U9E31U7LZ","caus_thomas_boxes_v2","3RXCAC0YIRQMQSP1VGLZXJJUKE9G81","4","0","0","1","1","1",,"17460","2017-10-04 16:03:58","21310"
"A2M68MELQOVZS7
","caus_thomas_boxes_v2","38YMOXR4MU0VJ0WDH6SJZ89R878W6T","5","0","0","1","1","1",,"21263","2017-10-04 16:04:09","21311"
"A2FPCCVXZWHGZF","caus_thomas_boxes_v2","3BF51CHDTVBI8ZF9KIQ2P4PDGGAH0E","8","0","0","1","1","1",,"13751","2017-10-04 16:04:11","21312"
"A2B6PP2KXD19N6","caus_thomas_boxes_v2","3VSOLARPKBALALWN5TKTELPW0FL394","4","0","0","0","1","1",,"8395","2017-10-04 16:05:02","21313"
"A273DS7TQWR9M1","caus_thomas_boxes_v2","36H9ULYP62V5W9PPB0C84OSWZA3JFP","8","0","0","0","1","1",,"21845","2017-10-04 16:05:24","21314"
"A3DDZYMKRVQRT6
","caus_thomas_boxes_v2","3RANCT1ZVFIOX8O3IXUQS0AM1S9UBE","4","0","0","1","1","0",,"17738","2017-10-04 16:05:27","21315"
" A39J5RLVDTM6SM","caus_thomas_boxes_v2","3FE7TXL1LIO2H2HQIVHAH6AT41QQ23","4","0","0","1","0","0",,"12140","2017-10-04 16:05:28","21316"
"A1NTIA4C6JCYTX","caus_thomas_boxes_v2","3K5TEWLKGVCYXVR9TXWCA9GIAP2IV0","7","0","0","0","0","0",,"13399","2017-10-04 16:05:31","21317"
"A26XF8O4XRL8JA","caus_thomas_boxes_v2","3JMSRU9HQIVMHQPNXE6LPUIQIWVEVN","1","0","0","1","0","1",,"34678","2017-10-04 16:06:08","21318"
"A2JZP4AZI1RTG4","caus_thomas_boxes_v2","39N5ACM9HEOSHA1A3RH0ROSX5BCP91","2","0","0","1","0","1",,"14652","2017-10-04 16:06:08","21319"
"ASFJ6WKFULUJT","caus_thomas_boxes_v2","3EQHHY4HQST33A6ZXIEWLZ93IO95GP","8","0","0","1","1","0",,"9372","2017-10-04 16:06:11","21320"
"A2UP31CCCRMM6W","caus_thomas_boxes_v2","3R8YZBNQ9HJ933EWO7Y5DXR1FHCQ7J","2","0","0","1","0","0",,"30012","2017-10-04 16:06:17","21321"
"A2XFO0X6RCS98M","caus_thomas_boxes_v2","3F6HPJW4JD171ZDCU4GG9VSFS282WK","5","0","0","1","1","0",,"4361","2017-10-04 16:06:22","21322"
"AEF94JKX6FG92
","caus_thomas_boxes_v2","30JNVC0OR9L6WSK81GKH4AGVTK8HQC","4","0","0","1","0","0",,"27669","2017-10-04 16:06:24","21323"
"A14WLAP6TCEKO0","caus_thomas_boxes_v2","3F6KKYWMNB24HF2EZS9A9V6SWHSNDM","4","0","0","0","1","1",,"13305","2017-10-04 16:06:41","21324"
"A2HWY6MOLHPI8M","caus_thomas_boxes_v2","3RGU30DZTA9B2JH6XNGLZEC5WBDMJX","7","0","0","1","0","0",,"12248","2017-10-04 16:06:41","21325"
"AC0AQV90ISP5O","caus_thomas_boxes_v2","3JWH6J9I9SEB2I4ULWI4E5ISTWFNBE","5","0","0","1","0","0",,"147933","2017-10-04 16:06:50","21326"
"A2SN9S7CGIDSRI","caus_thomas_boxes_v2","3SBEHTYCWN4F1PMEY8JWH8KCS63IY8","0","0","0","1","0","1",,"18516","2017-10-04 16:07:06","21327"
"A3AW92ZT3WY05A","caus_thomas_boxes_v2","3MAOD8E57QBIFL7VQSAM329KCZ4NXO","5","0","0","1","0","0",,"31847","2017-10-04 16:07:09","21328"
"A3K3VHDPCTI2Q","caus_thomas_boxes_v2","3FUI0JHJPXZZVJ77OKJJN8MA0ND33P","1","0","0","1","0","1",,"14077","2017-10-04 16:07:16","21329"
"A1JKSAQ8UNCE7B","caus_thomas_boxes_v2","31JLPPHS2UVOH80T7I3BBBKLVE8O34","4","0","0","1","1","0",,"17321","2017-10-04 16:07:26","21330"
" AAC7V5WYRYGVJ
","caus_thomas_boxes_v2","38SKSKU7R1YV1QFFFTU6N0IGJR0ILH","5","0","0","1","1","0",,"25350","2017-10-04 16:07:47","21331"
"A2IGYNJ7P2JEW5","caus_thomas_boxes_v2","3M0BCWMB8VX1PCD8DX9RAOVJM8LBWV","2","0","0","1","1","0",,"18804","2017-10-04 16:08:51","21332"
"AP3EZGN902UO2","caus_thomas_boxes_v2","3SKRO2GZ71S9HE1ZMMXZG1OFDPL1K6","3","0","0","1","0","0",,"18758","2017-10-04 16:08:51","21333"
"A3JT0TO0RPAIEE","caus_thomas_boxes_v2","3ZR9AIQJUBAOWNRE5B6JVFG9BBP40G","2","0","0","0","0","0",,"35380","2017-10-04 16:08:53","21334"
"A1USR9JCAMDGM3","caus_thomas_boxes_v2","3M81GAB8A0KW5FHM1OALIZDXY71BQO","0","0","0","1","0","0",,"23498","2017-10-04 16:08:55","21335"
"A3H9XHNUS12SSA","caus_thomas_boxes_v2","3Z2R0DQ0JHFDKZRL94MANPLFLY3E2G","5","0","0","1","1","1",,"28542","2017-10-04 16:09:09","21336"
"A2AVNKU60T23OQ","caus_thomas_boxes_v2","3NKQQ8O39Y6HC5MNWTLWNQYM4DMDU5","2","0","0","1","0","0",,"102261","2017-10-04 16:09:22","21337"
"A3UVZBXY81BNSF","caus_thomas_boxes_v2","3NG53N1RLVKS35I0YZBMRSXML5X8PY","8","0","0","1","1","0",,"42137","2017-10-04 16:09:24","21338"
"A2N4DD7IS7EI2D","caus_thomas_boxes_v2","3VP0C6EFSGXZEO2ZD4MWQA70A5V6MD","8","0","0","1","0","0",,"31779","2017-10-04 16:09:38","21339"
"A2M9EE6KTM8F8I
","caus_thomas_boxes_v2","3AMW0RGHOD3D6C5441059PNHA0TPN0","0","0","0","0","1","1",,"39580","2017-10-04 16:09:51","21340"
"A2KWPS7YQS4HPT","caus_thomas_boxes_v2","31HQ4X3T3SBKV4IBK5OKR2O3SP3LSD","8","0","0","1","1","0",,"11901","2017-10-04 16:09:55","21341"
"A3BKZ14V95ZNR6","caus_thomas_boxes_v2","3DR23U6WE5F74YLYSJ66OCU5LBFTEM","8","0","0","1","1","1",,"30098","2017-10-04 16:10:12","21342"
"A35JZAZK1L9D3Z","caus_thomas_boxes_v2","3MMN5BL1WZ50H5FHU2OYJ7VG0EUM3O","5","0","0","0","0","0",,"18345","2017-10-04 16:10:21","21343"
"A3V2LUYXBLBAPS","caus_thomas_boxes_v2","3A1COHJ8NJW0QOKCFM3HIJVVZEKH8Z","7","0","0","0","1","0",,"21411","2017-10-04 16:10:49","21344"
"A2UKCO1M1MEMZW","caus_thomas_boxes_v2","339ANSOTR53KHKXXUTI58051URWKIH","0","0","0","0","0","0",,"36264","2017-10-04 16:11:24","21345"
"A2XY43VECPAD61","caus_thomas_boxes_v2","3L6L49WXW0YNRUDF2HCVCAC0SJ1543","4","0","0","0","0","0",,"22623","2017-10-04 16:11:43","21346"
"A18ILYDB04VEE9","caus_thomas_boxes_v2","3QECW5O0KH278FS5HID3KIOS8II5TZ","8","0","0","1","0","0",,"7557","2017-10-04 16:11:52","21347"
"A27MJOV91GA8R3","caus_thomas_boxes_v2","3VD82FOHKQPCU8WC0BEC4EOF1RJOC0","1","0","0","1","0","0",,"14145","2017-10-04 16:11:54","21348"
"A1PBRKFHSF1OF8","caus_thomas_boxes_v2","3WMOAN2SRBYQBW20QD94FHCZWOXNVM","6","0","0","0","0","1",,"12819","2017-10-04 16:11:58","21349"
"A3FAURB3U6YND5","caus_thomas_boxes_v2","3TE3O8573092T3WQVA6AMWKY0NR2RF","7","0","0","0","1","1",,"15080","2017-10-04 16:12:16","21350"
"AHF0I035D5WYQ","caus_thomas_boxes_v2","31JLPPHS2UVOH80T7I3BBBKLVE9O35","0","0","0","1","0","1",,"13564","2017-10-04 16:12:17","21351"
"A3X6N2OAY5XY8","caus_thomas_boxes_v2","37TRT2X24QSFJSD96YQCLY1BKCCBJ0","4","0","0","1","1","1",,"35765","2017-10-04 16:12:34","21352"
"ALOX6TS3BTQ7W","caus_thomas_boxes_v2","34X6J5FLPTZ2NYFYPGN2GNWA6CCQJQ","8","0","0","1","0","1",,"19900","2017-10-04 16:13:02","21353"
"A3RGDXZ76VHKZG
","caus_thomas_boxes_v2","3OB0CAO74HQF5UBUSQ1BHWJXSTQYHX","5","0","0","0","1","1",,"6268","2017-10-04 16:13:03","21354"
"A35LW9NWBJMTJL","caus_thomas_boxes_v2","3RXCAC0YIRQMQSP1VGLZXJJUKEB8GV","6","0","0","0","1","0",,"40262","2017-10-04 16:13:12","21355"
"A39XD5I3E00YO3","caus_thomas_boxes_v2","3RXCAC0YIRQMQSP1VGLZXJJUKEBG83","5","0","0","1","0","1",,"25107","2017-10-04 16:13:43","21356"
"AWR2H6FRG5BWK","caus_thomas_boxes_v2","37WLF8U1WPR4O02WSS9GBXFWL026KA","1","0","0","1","0","0",,"36606","2017-10-04 16:13:50","21357"
"A2LH24MZKYTF1G","caus_thomas_boxes_v2","3IAEQB9FMELU49BSRT0X5EJJPTYDW5","7","0","0","0","1","1",,"20871","2017-10-04 16:13:55","21358"
"A3CAK26YRNTXDB
A3CAK26YRNTXDB
A3CAK26YRNTXDB
A3CAK26YRNTXDB","caus_thomas_boxes_v2","3M0BCWMB8VX1PCD8DX9RAOVJM8LWBG","4","0","0","0","0","1",,"24195","2017-10-04 16:14:25","21359"
"AGAZV3V4WLP9E
","caus_thomas_boxes_v2","3FIUS151DV31J7VJEEXNPW0S8XOGGJ","0","0","0","0","0","1",,"19055","2017-10-04 16:14:32","21360"
"A2AGQGMZVSZVUJ","caus_thomas_boxes_v2","3WYP994K17SZ85RDW7A7K5U7JF76Y1","5","0","0","0","1","1",,"8001","2017-10-04 16:14:57","21361"
"ADZO2VRSQC62U","caus_thomas_boxes_v2","3XC1O3LBOSNLA4VQ95TA17KPU8ILT3","4","0","0","0","0","0",,"22169","2017-10-04 16:15:35","21362"
"A105FRIGFBE5N","caus_thomas_boxes_v2","36WLNQG78ZB78CRHSXFLOIOJF4HBEG","6","0","0","0","0","1",,"15624","2017-10-04 16:15:53","21363"
"A1MA9Y6WVISU8H","caus_thomas_boxes_v2","3Z7VU45IPYI4690LMN093GCSHYYZ1Q","6","0","0","0","1","1",,"44141","2017-10-04 16:15:58","21364"
"A3GVIO0THJXK51","caus_thomas_boxes_v2","3NJM2BJS4W7UF88DFBRRTET5BWJCP9","7","0","0","1","0","1",,"17740","2017-10-04 16:16:30","21365"
"A2SOHTPWH4VGP5","caus_thomas_boxes_v2","3NGI5ARFTT6AS5YFZE27CIAE7ZS1P8","6","0","0","1","1","1",,"12887","2017-10-04 16:16:35","21366"
"GFLS23ADX","caus_thomas_boxes_v2","3KOPY89HM83AGX9WR5B63F3ZWKY3J0","8","0","0","1","0","1",,"21733","2017-10-04 16:16:43","21367"
"A1C8FN01981A69","caus_thomas_boxes_v2","33LKR6A5KEL8KXRMGVBRHSBBW2D1TD","6","0","0","1","1","0",,"25215","2017-10-04 16:16:43","21368"
"A2QASAMGT1UYZ3","caus_thomas_boxes_v2","3RANCT1ZVFIOX8O3IXUQS0AM1SBBUX","4","0","0","1","0","1",,"26884","2017-10-04 16:17:25","21369"
"A1Z0YMGUC86KC5","caus_thomas_boxes_v2","3SNLUL3WO4O0AHAF9AJK636RDMPLUU","5","0","0","1","1","0",,"13818","2017-10-04 16:17:29","21370"
"A268OJ4RQUMQRE","caus_thomas_boxes_v2","3LOZAJ85YDEMQZI249C2BE6M14FX29","4","0","0","1","1","1",,"19697","2017-10-04 16:17:31","21371"
"A1YSYI926BBOHW","caus_thomas_boxes_v2","3SKEMFQBZ36RSELKL76EVBBNRVSK8A","6","0","0","0","0","1",,"26843","2017-10-04 16:18:02","21372"
"A1C66QKNXGH895
","caus_thomas_boxes_v2","3R6BYFZZP7D6RTUES4R9VX0BA8HXFQ","2","0","0","1","0","0",,"25935","2017-10-04 16:18:02","21373"
"A3CV0AEQ8HOJ0U","caus_thomas_boxes_v2","358010RM5EUVNQG4SJWDDJ3XY28XVH","5","0","0","1","1","1",,"11884","2017-10-04 16:18:13","21374"
"A2653BIPJKEMRK","caus_thomas_boxes_v2","39GHHAVOMFSVYTS0RJGPDKV5AKW4JO","6","0","0","0","0","1",,"21229","2017-10-04 16:18:25","21375"
"A78BQKTL58999","caus_thomas_boxes_v2","3HUTX6F6VUOZWQ4A3IP6S1FTP0B2OA","5","0","0","1","1","1",,"17281","2017-10-04 16:18:32","21376"
"A3G6L97AX9KR7F","caus_thomas_boxes_v2","31LM9EDVOLTHK1269OVLCT1511OJNV","8","0","0","0","1","0",,"31666","2017-10-04 16:18:34","21377"
"A18B5QL328E02A","caus_thomas_boxes_v2","34J10VATJFZ6SNVS7Y224MHATXPIQ8","4","0","0","1","1","0",,"28665","2017-10-04 16:18:35","21378"
"A3L765G2GHCIHX","caus_thomas_boxes_v2","39LNWE0K4UXYKG29O7M7ENEZWIVIUD","5","0","0","0","1","0",,"29150","2017-10-04 16:18:43","21379"
"A248ARSA6FS20S","caus_thomas_boxes_v2","3TS1AR6UQQFCCEONARNB1YNN8F1F7C","1","0","0","1","0","1",,"34011","2017-10-04 16:18:45","21380"
"A1CFPKUOCGJIM6","caus_thomas_boxes_v2","35DR22AR5DLBBHEL89Q7UOBE7IFX3K","6","0","0","1","1","0",,"50850","2017-10-04 16:19:47","21381"
"A3PX0OPH41ZSH0","caus_thomas_boxes_v2","3VNL7UK1XFKZACLUNUQC6UF5XCWTF6","4","0","0","0","0","1",,"13919","2017-10-04 16:19:47","21382"
"A2ZLJ54OLKRIN3","caus_thomas_boxes_v2","3FIJLY1B6U51IKSN6DHS1KE889BPFX","7","0","0","0","0","1",,"33792","2017-10-04 16:19:48","21383"
"AMKEGABQMZYIK","caus_thomas_boxes_v2","3XIQGXAUMC9TC0F8ALTX75NUCK27X0","2","0","0","0","1","0",,"16851","2017-10-04 16:20:18","21384"
"A2JOHICL072IY3","caus_thomas_boxes_v2","3O7L7BFSHEQHVK5NY772A5SWAU1IEW","0","0","0","0","0","0",,"23291","2017-10-04 16:20:19","21385"
"A8SP23ECDU4F0","caus_thomas_boxes_v2","3I33IC7ZWF3AUMA9TZKOR6VO0J72AB","5","0","0","0","0","1",,"4962","2017-10-04 16:20:30","21386"
"A3D3NEQ158WUB0","caus_thomas_boxes_v2","33L7PJKHCGZQVXB7FGK6W2YJA8F8T0","6","0","0","1","1","0",,"15031","2017-10-04 16:20:31","21387"
"A3JFM7PRPF0G5H","caus_thomas_boxes_v2","3BWI6RSP7GAK60ORFG35JG2NWER7ER","2","0","0","1","1","1",,"7865","2017-10-04 16:20:38","21388"
"A2LO0Y6U9D4PRV
","caus_thomas_boxes_v2","3Z3ZLGNNSIVR2KD9MVVF0GFLAFT3QU","3","0","0","1","1","1",,"20517","2017-10-04 16:20:41","21389"
"AL6DWYE72TPK2","caus_thomas_boxes_v2","3WYP994K17SZ85RDW7A7K5U7JFBY6X","0","0","0","1","1","1",,"26578","2017-10-04 16:20:49","21390"
"A2LL81ERU0Y7E6","caus_thomas_boxes_v2","3DUZQ9U6SMPNR9U5Y9QQEBM5JN6SV4","4","0","0","1","1","0",,"27523","2017-10-04 16:20:58","21391"
"A26L7403RHRQP8","caus_thomas_boxes_v2","3K4J6M3CXEU09GIGSE5DTAPPA2CGA8","2","0","0","1","0","1",,"11961","2017-10-04 16:21:13","21392"
"AWHCA5PZ6MTKB","caus_thomas_boxes_v2","3YGXWBAF70I8QFMUHRZ3QGIAK0O4CB","0","0","0","1","0","0",,"17720","2017-10-04 16:21:17","21393"
"A3ACDKL2RDEY60","caus_thomas_boxes_v2","3S96KQ6I9M52CS7YWOVMIUCKLZGTDV","1","0","0","1","1","1",,"29501","2017-10-04 16:21:22","21394"
"A1L5LL9EJ8DC5
","caus_thomas_boxes_v2","3VJ40NV2QIOTGPYNMX92TOOJPDOOTO","8","0","0","1","0","0",,"8061","2017-10-04 16:21:23","21395"
"A2F2OPQMYBHCK9","caus_thomas_boxes_v2","3M0NZ3JDP1Z3UR14NA2L66P9TE4Z59","4","0","0","0","0","1",,"28363","2017-10-04 16:21:25","21396"
"A1AULL8HT23K1H","caus_thomas_boxes_v2","3CTOC39K37RSHGAJTHEWGWFF1MNJ7O","4","0","0","1","1","0",,"51140","2017-10-04 16:22:14","21397"
"A240OTT1T85UGT","caus_thomas_boxes_v2","3A7Y0R2P2OPMWVGABUIUAVS33FXXJS","2","0","0","1","0","1",,"19269","2017-10-04 16:22:37","21398"
"A3I9FTHSULHPYS","caus_thomas_boxes_v2","3H7Z272LX78NIC2JSOKQWXJS55TLPU","8","0","0","0","0","1",,"11247","2017-10-04 16:22:38","21399"
"A1TXCO12MCTP8P","caus_thomas_boxes_v2","36PW28KO4ZX2P2MPMJFPT74DXMXEAP","6","0","0","0","1","0",,"26505","2017-10-04 16:22:50","21400"
"A1E1FPUGATIFAY","caus_thomas_boxes_v2","34X6J5FLPTZ2NYFYPGN2GNWA6CFJQM","4","0","0","0","1","1",,"28873","2017-10-04 16:22:57","21401"
"A22I5RTLJTY3JZ","caus_thomas_boxes_v2","3IXQG4FA2TZQDG00KMZZW4N8O7XB92","4","0","0","1","1","0",,"36756","2017-10-04 16:22:59","21402"
"A3KKPCU6AHF1ZV","caus_thomas_boxes_v2","3TPWUS5F892KZH5ERX5ML8114TNCW5","1","0","0","1","1","0",,"17181","2017-10-04 16:23:09","21403"
"AJLAQAJ1OJMEJ","caus_thomas_boxes_v2","3W2LOLRXLBGXAJ0GKGCEMS6SHNFRKS","8","0","0","1","1","1",,"18194","2017-10-04 16:23:47","21404"
"A1RVDQI5SU8A6C","caus_thomas_boxes_v2","3EJJQNKU9R668TZ8EV9H90Q0P6DHRG","4","0","0","1","1","1",,"19145","2017-10-04 16:23:56","21405"
"APW9F8OTJ4KXO","caus_thomas_boxes_v2","3VSOLARPKBALALWN5TKTELPW0FL93A","2","0","0","1","0","1",,"17453","2017-10-04 16:24:17","21406"
"A1GTW607BQF9JH","caus_thomas_boxes_v2","3PXX5PX6LXZ4IZA5CSDZSZYSUPKABL","2","0","0","0","0","1",,"34736","2017-10-04 16:24:21","21407"
"AT94Y12KGEKNO","caus_thomas_boxes_v2","3WYGZ5XF3WG9BY0TZ5CJC2BO3P0SKJ","4","0","0","0","0","0",,"18989","2017-10-04 16:24:28","21408"
"A3U4PA0LWECHCC
","caus_thomas_boxes_v2","30JNVC0OR9L6WSK81GKH4AGVTKBHQF","1","0","0","1","0","1",,"28390","2017-10-04 16:24:54","21409"
"A2DFXQ3QVQ9ELH","caus_thomas_boxes_v2","3DOCMVPBTNFD3RTROMND50IMALXNN7","1","0","0","0","1","0",,"14457","2017-10-04 16:24:55","21410"
"A2QMHQXR8K4VJ2","caus_thomas_boxes_v2","3X73LLYYQ1FLTV7GLOS00GLQO9MHNQ","5","0","0","1","1","0",,"2038","2017-10-04 16:25:00","21411"
" AP8OG80OLCCMC","caus_thomas_boxes_v2","3E337GFOL997TZC51IAIFG9P99BNGZ","6","0","0","1","0","1",,"16147","2017-10-04 16:25:13","21412"
"A1L5H5KX16J1LS","caus_thomas_boxes_v2","3X87C8JFV6CVM1YOCAWG8ONX2VSSQB","0","0","0","1","0","1",,"19621","2017-10-04 16:25:13","21413"
"A1UK8S8R5QYL6D","caus_thomas_boxes_v2","3VHHR074H3IYC6YJW2Q9WBS75BSL7S","4","0","0","0","1","1",,"45753","2017-10-04 16:25:52","21414"
"A2VQ1WGHLLLNJ1","caus_thomas_boxes_v2","3U4J9857OECMZXC75P1FI8W2TH9B7Q","4","0","0","0","1","0",,"4423","2017-10-04 16:26:06","21415"
"A69XNU9C3BUIE","caus_thomas_boxes_v2","3J4Q2Z4UTY4OTIFXWF6H5DQI88OQWO","0","0","0","1","0","1",,"19908","2017-10-04 16:26:43","21416"
"A1HCTAULAAOC8A","caus_thomas_boxes_v2","3YZ8UPK3VTN77DG9WXQL3KG4JDBUCN","0","0","0","0","1","1",,"37997","2017-10-04 16:27:00","21417"
"A2CVC5F08BKDEI","caus_thomas_boxes_v2","3180JW2OT4DDUCW05OZZIC1JAGT5JW","5","0","0","1","1","1",,"16946","2017-10-04 16:27:19","21418"
"A2WTNZHRALOHX8","caus_thomas_boxes_v2","3WT783CTPBISBE73W69QYUOGUS0BCJ","4","0","0","0","0","0",,"16058","2017-10-04 16:27:52","21419"
"AY5QUURIR136D","caus_thomas_boxes_v2","3LO69W1SU3EH5Z9KP5U32O504E6LGQ","6","0","0","0","0","0",,"38080","2017-10-04 16:27:54","21420"
"A24ZP6TOKYBSQS
","caus_thomas_boxes_v2","3FFJ6VRIL1PI4UQTQ08NPGQSGTT0IU","2","0","0","0","1","0",,"34565","2017-10-04 16:28:06","21421"
"A3IFMNK4AQPHUN","caus_thomas_boxes_v2","39L1G8WVWQS3LGTS1G50ZF7D232310","8","0","0","1","0","1",,"12125","2017-10-04 16:28:09","21422"
"A36GNR27NX3ZT4","caus_thomas_boxes_v2","3I0BTBYZAXM4UU5YUIUQB4KG6CR0Y0","3","0","0","1","0","1",,"19710","2017-10-04 16:28:39","21423"
"A2HONMTLV8J20E
A2HONMTLV8J20E
","caus_thomas_boxes_v2","3B2X28YI3WG3VXY2MFWNCUW6Y6VB6X","2","0","0","0","1","1",,"22267","2017-10-04 16:29:32","21424"
"A24WRYRST9NJK0","caus_thomas_boxes_v2","3LOZAJ85YDEMQZI249C2BE6M14D2XC","2","0","0","1","1","1",,"25222","2017-10-04 16:29:53","21425"
"A1HSNNF773HGA3","caus_thomas_boxes_v2","3PDJHANYK5HDMA1OM76JY5Z4TJ0H6J","7","0","0","0","1","1",,"10331","2017-10-04 16:30:06","21426"
"A274NFT93QPBGL","caus_thomas_boxes_v2","3PJ71Z61R43P0II8IP6AQSAZ2VC91N","6","0","0","1","0","0",,"11910","2017-10-04 16:30:55","21427"
"A2M9D02CIVECE3","caus_thomas_boxes_v2","3GGAI1SQEVZOU5B0NVZZCAZA6RAMCP","0","0","0","1","0","1",,"9136","2017-10-04 16:31:01","21428"
"Your Worker ID: A2MI6M2FN6349B
","caus_thomas_boxes_v2","3BGYGHDBBXLLPJF5GKR9LOCQOVG225","4","0","0","1","0","1",,"26361","2017-10-04 16:31:01","21429"
"A202FBLB25LZC8","caus_thomas_boxes_v2","3LWJHTCVCCNMIWT26QWH1P4ID5ZFQG","4","0","0","0","0","0",,"19447","2017-10-04 16:31:21","21430"
"A23437BMZ5T1FH","caus_thomas_boxes_v2","3KB8R4ZV1E85SQN8YS59OL9VSKSBGT","8","0","0","0","1","1",,"24189","2017-10-04 16:32:02","21431"
"A3K0TCD0S67NV7","caus_thomas_boxes_v2","3AQF3RZ558JT8EAIRHIJVKNRD4NF6J","1","0","0","0","0","0",,"54117","2017-10-04 16:32:23","21432"
"A16XPQ7UEYUEIC
","caus_thomas_boxes_v2","3SB4CE2TJVWBV2D6HO5HHWPKDS8XAH","1","0","0","1","0","1",,"28819","2017-10-04 16:32:49","21433"
"A3SBDWO5M0G2L0","caus_thomas_boxes_v2","3KRVW3HTZNM41M0WKHPZRF3SSUWMSJ","8","0","0","0","0","0",,"42759","2017-10-04 16:32:58","21434"
"A29SETAL44W6LV","caus_thomas_boxes_v2","3KWTYT08704JP2K089BCYREBE5YL5E","6","0","0","1","1","0",,"35721","2017-10-04 16:32:58","21435"
"A12MV66U9VGLQ1","caus_thomas_boxes_v2","3VNXK88KKCJ5MUY6P3QZXGHFRZJ9VC","0","0","0","0","1","0",,"25338","2017-10-04 16:33:20","21436"
" A1HSNNF773HGA3","caus_thomas_boxes_v2","3PDJHANYK5HDMA1OM76JY5Z4TJ0H6J","7","0","0","0","1","1",,"7674","2017-10-04 16:33:39","21437"
" A33B85TN97HQ33","caus_thomas_boxes_v2","3JRJSWSMQHM25HN4D40F6ZQ7RC73EK","5","0","0","0","0","0",,"19519","2017-10-04 16:34:08","21438"
"AC4JE0Z8N0R35","caus_thomas_boxes_v2","37FMASSAYCSJOHT3OG5C9XMB7XQIBY","0","0","0","0","1","0",,"48483","2017-10-04 16:34:30","21439"
"A27KZJJR9201NN","caus_thomas_boxes_v2","3F0BG9B9MPOIC55IFHFZQJU3EQXY7Y","8","0","0","1","1","0",,"14252","2017-10-04 16:34:35","21440"
"A2VDLRRPXV3N59","caus_thomas_boxes_v2","39LNWE0K4UXYKG29O7M7ENEZWIXIUF","5","0","0","1","0","1",,"46449","2017-10-04 16:34:39","21441"
"A8KX1HFH8NE2Q","caus_thomas_boxes_v2","3KGTPGBS6XMU9VO7Z41FR77I7MXU2D","2","0","0","0","0","0",,"20667","2017-10-04 16:34:52","21442"
"A3ELD23VP27XJ6","caus_thomas_boxes_v2","3U5JL4WY5KAWTDXP8NVQ4T3KLIDX47","5","0","0","1","1","0",,"50421","2017-10-04 16:34:56","21443"
"A37GQDZ9JFQD0E","caus_thomas_boxes_v2","3WZ36BJEV3H9XV9EIS4GN4OKIE6TBQ","0","0","0","1","0","0",,"13816","2017-10-04 16:35:02","21444"
"A3KUGXG2Y6X7BD","caus_thomas_boxes_v2","32SCWG5HIH55ZRZC5KEO7E1VFAB6PE","8","0","0","0","1","1",,"21240","2017-10-04 16:35:51","21445"
"A1H4GJFI4NJWKV","caus_thomas_boxes_v2","3F1567XTNW6DHM2P34WPRTI7A759QJ","0","0","0","0","1","0",,"15495","2017-10-04 16:35:55","21446"
"AVDF9O70MW7X8","caus_thomas_boxes_v2","3VP0C6EFSGXZEO2ZD4MWQA70A5TM6R","0","0","0","1","0","0",,"75049","2017-10-04 16:36:26","21447"
"AT6LDQNLKTUSE","caus_thomas_boxes_v2","3JWH6J9I9SEB2I4ULWI4E5ISTWGBN3","4","0","0","0","0","0",,"39487","2017-10-04 16:36:43","21448"
"A2ZA3X3DBEMBCD","caus_thomas_boxes_v2","3AWETUDC92TF6FWJUULFVFTEY0CZIL","8","0","0","0","1","1",,"22388","2017-10-04 16:37:10","21449"
"ANKOUNJ7U1GPT","caus_thomas_boxes_v2","31QTRG6Q2TE7IB9IB39GQ5LOEK3YP5","7","0","0","0","0","0",,"63765","2017-10-04 16:37:18","21450"
"A2MWM48TBM5C65","caus_thomas_boxes_v2","3DI28L7YXAF6VE9PQ0MWI6BATSTE13","6","0","0","0","1","1",,"56829","2017-10-04 16:37:19","21451"
"A2C4Z939OAKJJP","caus_thomas_boxes_v2","3OONKJ5DKCKTK346MBIHTUIXJ6QBON","4","0","0","1","0","1",,"36696","2017-10-04 16:37:31","21452"
"A2WDF40FA670T9","caus_thomas_boxes_v2","3CFJTT4SXTRWM5QDBZTW4V0FO707I2","8","0","0","0","0","1",,"28940","2017-10-04 16:38:12","21453"
"A1EW2JEP87VJAX","caus_thomas_boxes_v2","3TU5ZICBRD2D3HJFYCQBRXNWQ1MQ8A","8","0","0","0","1","0",,"18703","2017-10-04 16:38:14","21454"
"AOTSBJGYMR4N8","caus_thomas_boxes_v2","3WR9XG3T63C2EYRYQARSAUQWJPZ74N","2","0","0","0","1","1",,"23951","2017-10-04 16:38:26","21455"
"A2U0XDH72EN978","caus_thomas_boxes_v2","3WAKVUDHUWH1VWLD5GIANYOQI2N7UA","5","0","0","1","1","1",,"22627","2017-10-04 16:38:32","21456"
"A1757P947I5HTB","caus_thomas_boxes_v2","3A4TN5196KJ22RAPWYJMK5REP5CHCC","6","0","0","0","1","0",,"22146","2017-10-04 16:38:34","21457"
"A2H26E9XKQPQYJ","caus_thomas_boxes_v2","3KMS4QQVK2R07TV7TLCK53S9EZ8FKP","7","0","0","0","1","1",,"22174","2017-10-04 16:38:57","21458"
"A2NISO63F81FOK","caus_thomas_boxes_v2","3TOK3KHVJTJ6IR1G9U61OSW10GZ7OX","0","0","0","0","0","1",,"29852","2017-10-04 16:39:19","21459"
"A14CXE3OMENOYS","caus_thomas_boxes_v2","3RJSC4XJ10V6S6VEJGPT07MNB7P05M","7","0","0","1","0","1",,"14466","2017-10-04 16:39:43","21460"
"A25HIOE2S953Y4","caus_thomas_boxes_v2","3T111IHZ5ERDTNHPGJLPWJSC6T29RF","2","0","0","1","0","0",,"28254","2017-10-04 16:39:48","21461"
" A237SO0Y2E3XFT
","caus_thomas_boxes_v2","3E7TUJ2EGCNJSDYKYIQ5RUB8RSGD9I","3","0","0","1","0","0",,"29665","2017-10-04 16:40:20","21462"
"A34CBV74LOV6E3","caus_thomas_boxes_v2","36AHBNMV1RDYTE6S6UILQB4Z011YDS","3","0","0","1","0","0",,"18604","2017-10-04 16:40:32","21463"
"A238LS8I9J2V78","caus_thomas_boxes_v2","3RJSC4XJ10V6S6VEJGPT07MNB7N05K","8","0","0","1","0","0",,"38357","2017-10-04 16:40:43","21464"
"A1036BH0RBAF1O","caus_thomas_boxes_v2","386PBUZZXFYRW1ZLXBF6Z1XGW6OJLT","6","0","0","0","0","1",,"16076","2017-10-04 16:41:36","21465"
"A3D1KY32KA7US9","caus_thomas_boxes_v2","3IGI0VL647LVLCT3P1NQKPIR0V4ONP","0","0","0","1","0","0",,"11519","2017-10-04 16:41:44","21466"
"AU2JHFXXWIOJU","caus_thomas_boxes_v2","3TVRFO09GKGSRL4AEFU7QA5V749LXP","8","0","0","0","1","0",,"14215","2017-10-04 16:41:59","21467"
"A3C86Q36W9CV85","caus_thomas_boxes_v2","3Q5ZZ9ZEVOGOAV0HEK28TMS5U5Y85E","7","0","0","0","0","0",,"45183","2017-10-04 16:42:04","21468"
"A21STU4Z97J2Z6","caus_thomas_boxes_v2","3EJPLAJKEMHZDV1ISTCQYC39P9I6ZZ","6","0","0","1","0","1",,"244698","2017-10-04 16:42:29","21469"
"A9I2B5FSKFPGO","caus_thomas_boxes_v2","37ZHEEHM6WNHW28UQWM90PYQ5P437Z","6","0","0","0","1","0",,"24919","2017-10-04 16:42:30","21470"
"AFLIR13GDN6OO","caus_thomas_boxes_v2","32VNZTT0A75CWHBDZOPYFBHWK1TR46","8","0","0","1","0","0",,"15862","2017-10-04 16:42:55","21471"
"A1AFG8KNWNMI91","caus_thomas_boxes_v2","3PJ71Z61R43P0II8IP6AQSAZ2VE19H","2","0","0","0","0","1",,"25896","2017-10-04 16:43:32","21472"
"A1QIJ94TJ6FZ2W","caus_thomas_boxes_v2","3KAKFY4PGU3ELMPQ9NQ6REOZJ57I31","2","0","0","0","1","1",,"12342","2017-10-04 16:43:33","21473"
"A1UJXOK2GPY2C1","caus_thomas_boxes_v2","39GXDJN2OTF58PFWKBKLXKM47T38VO","4","0","0","0","0","1",,"24926","2017-10-04 16:43:35","21474"
"A2W59CL4UQ3S4S","caus_thomas_boxes_v2","3PJ71Z61R43P0II8IP6AQSAZ2V719A","0","0","0","1","1","0",,"12692","2017-10-04 16:44:12","21475"
"A2VNPR6J06JG09
","caus_thomas_boxes_v2","3J2UYBXQQLD2BAVSOZZYSD0N720062","8","0","0","0","0","0",,"22907","2017-10-04 16:44:28","21476"
"A3QDBNW2H8EMFW","caus_thomas_boxes_v2","3SUWZRL0MYE120AMW6YDD22R13A6EU","8","0","0","0","1","1",,"13315","2017-10-04 16:44:43","21477"
"A1B6EGCM2DNDPC","caus_thomas_boxes_v2","3D8YOU6S9ELIRW78M6DIHKOUNR3U6Y","8","0","0","1","0","0",,"74329","2017-10-04 16:45:00","21478"
"A2OVX9UW5WANQE","caus_thomas_boxes_v2","3AMYWKA6YBNNERNBQK19IEW555BO6B","3","0","0","0","0","0",,"17838","2017-10-04 16:45:14","21479"
"AW6DOBYV5GVN6
AW6DOBYV5GVN6
AW6DOBYV5GVN6
AW6DOBYV5GVN6
AW6DOBYV5GVN6","caus_thomas_boxes_v2","33NF62TLXJ3GCVH3CB35K1K176QJKX","4","0","0","0","0","1",,"17539","2017-10-04 16:45:32","21480"
"A3TJPDNWGQ37TL","caus_thomas_boxes_v2","35DR22AR5DLBBHEL89Q7UOBE7IIX3N","5","0","0","0","0","0",,"31070","2017-10-04 16:46:02","21481"
"AV8OEW8TOIFL8","caus_thomas_boxes_v2","37C0GNLMHF4WAUWM0BNT7KK61R96D1","0","0","0","0","1","1",,"54644","2017-10-04 16:46:11","21482"
"A1WA3VMWGQJPYS","caus_thomas_boxes_v2","3LUY3GC63Z1O3RDHOUJGDS1RALS7PB","5","0","0","0","0","1",,"15462","2017-10-04 16:46:29","21483"
"A2VSH914I5Y1CM","caus_thomas_boxes_v2","37Q970SNZE975XE7RV617NFPUJ31SS","8","0","0","0","0","1",,"97694","2017-10-04 16:46:31","21484"
"A1R0689JPSQ3OF","caus_thomas_boxes_v2","3GGAI1SQEVZOU5B0NVZZCAZA6RCCMH","3","0","0","0","0","0",,"23735","2017-10-04 16:46:41","21485"
"A300JSAZN2FHGM","caus_thomas_boxes_v2","3RWE2M8QWHBAIV1KNGLFUOM92SP0NC","1","0","0","1","1","0",,"342124","2017-10-04 16:46:52","21486"
"A2N9Q1IHLP4LGI","caus_thomas_boxes_v2","3TVSS0C0E111LY7PDJ0CAI15SFPWTA","6","0","0","0","1","0",,"18889","2017-10-04 16:47:29","21487"
"ADWPGLPZY9W2D","caus_thomas_boxes_v2","3S06PH7KSR5138VPU5BCCOTPTGT1DY","5","0","0","0","1","1",,"242257","2017-10-04 16:47:58","21488"
"A1ULDE5AWVZOJ8","caus_thomas_boxes_v2","3FPRZHYEPY8J7S9Q8UPP63ETR7B3VR","5","0","0","0","1","0",,"34467","2017-10-04 16:48:08","21489"
"A3HWXJ6JUX4QU6","caus_thomas_boxes_v2","3QIYRE09Y3IAPKM2JZPF8T5J7KVN12","1","0","0","0","1","0",,"26036","2017-10-04 16:48:54","21490"
"A6RN0QP3HCH69","caus_thomas_boxes_v2","3F6KKYWMNB24HF2EZS9A9V6SWHYNDS","4","0","0","1","1","1",,"27853","2017-10-04 16:49:04","21491"
"A299CU7U9QX3E7","caus_thomas_boxes_v2","3DY4FPOOA1PBQUUSJKQLO1H9XLRRVJ","7","0","0","0","0","0",,"22369","2017-10-04 16:49:16","21492"
"A3P0P0DRSOX52W","caus_thomas_boxes_v2","3EA3QWIZ4IWJK3NKO2WX9RSXD4SITQ","0","0","0","1","1","0",,"26527","2017-10-04 16:49:25","21493"
"A18SI5095GGGWT","caus_thomas_boxes_v2","31Z0PCVWUKGMVJ6O5BS0I22OZOET73","6","0","0","0","0","0",,"60317","2017-10-04 16:49:29","21494"
"A1CZU3RMLIJDLP","caus_thomas_boxes_v2","3FIJLY1B6U51IKSN6DHS1KE889FPF1","4","0","0","0","1","0",,"27209","2017-10-04 16:49:57","21495"
"A3X7AOXQHS025","caus_thomas_boxes_v2","36WLNQG78ZB78CRHSXFLOIOJF4LEBN","7","0","0","0","0","0",,"21314","2017-10-04 16:50:47","21496"
"A3DL409Q3VM1RW","caus_thomas_boxes_v2","3W92K5RLWUIML7WUMDDIL0CD532V59","0","0","0","1","1","1",,"13205","2017-10-04 16:50:47","21497"
" A7KFUL95QMAUD","caus_thomas_boxes_v2","3R2UR8A0IAH0X677R7AZIR9P29FXOJ","1","0","0","0","0","1",,"30044","2017-10-04 16:50:50","21498"
"AL75N9DPZ0E6C","caus_thomas_boxes_v2","3S3AMIZX3U6LQB5NA20WTKCGXDKDC0","4","0","0","1","1","1",,"27090","2017-10-04 16:50:55","21499"
": AG2XF1B7MULIC","caus_thomas_boxes_v2","3JMSRU9HQIVMHQPNXE6LPUIQIW1VEA","5","0","0","1","0","1",,"15780","2017-10-04 16:51:16","21500"
"ABVLH4KP7DKNV","caus_thomas_boxes_v2","3KJYX6QCM9CUS6BFBFHCMAVIN4XVJV","4","0","0","1","1","1",,"14094","2017-10-04 16:51:35","21501"
"A3AQYLO68E8658","caus_thomas_boxes_v2","37QW5D2ZRGNPGXYSQGFGMX2X8PA8SK","4","0","0","1","1","1",,"18203","2017-10-04 16:51:40","21502"
"A12HZGOZQD5YK7","caus_thomas_boxes_v2","3H7Z272LX78NIC2JSOKQWXJS551PL6","7","0","0","0","1","1",,"26083","2017-10-04 16:52:50","21503"
"A3KBHRV189JXBJ","caus_thomas_boxes_v2","3TMFV4NEP8FINEF1ALPHJM5IE25W8M","3","0","0","1","1","0",,"11412","2017-10-04 16:53:13","21504"
"A37H4LHTQ3J1Y8","caus_thomas_boxes_v2","3OJSZ2ATDSXKAHVY4FA2FMWAJLW75U","5","0","0","1","0","0",,"23109","2017-10-04 16:53:56","21505"
"ACH337Q8X1SOI","caus_thomas_boxes_v2","32VNZTT0A75CWHBDZOPYFBHWK1U4RK","3","0","0","0","1","1",,"4046","2017-10-04 16:54:13","21506"
"A12LI6GAHU6S2H","caus_thomas_boxes_v2","3ZAK8W07I4FNDLLTKHX18JE3AOI0U4","1","0","0","1","0","0",,"19754","2017-10-04 16:54:27","21507"
"A1PKCBFB4QY19G","caus_thomas_boxes_v2","3NAPMVF0ZWGSBKCBMW84HFTYZB527O","4","0","0","1","0","1",,"10410","2017-10-04 16:54:28","21508"
"AIM3PIK90V9HX","caus_thomas_boxes_v2","3VFJCI1K4Z0S8X4XUPRZO0EZA64GRK","3","0","0","1","1","1",,"13942","2017-10-04 16:54:34","21509"
"A2CXRQSNG1NZ0O","caus_thomas_boxes_v2","3LKC68YZ3A4L862HH2EDG8VIT79OWH","1","0","0","0","0","1",,"21427","2017-10-04 16:54:57","21510"
"A2LUYCORWDOR7Q","caus_thomas_boxes_v2","3FDJT1UU74985W2IN9ZBJR1WP5O5KQ","5","0","0","1","1","0",,"24376","2017-10-04 16:55:17","21511"
"A2MJ0UWP0QD796","caus_thomas_boxes_v2","3RKNTXVS3MZKX0PWXD3CKLSMKX7A4J","7","0","0","1","1","1",,"27105","2017-10-04 16:55:32","21512"
"A12O9P1OTMJOPW","caus_thomas_boxes_v2","3HUTX6F6VUOZWQ4A3IP6S1FTP0E2OD","7","0","0","1","1","0",,"24037","2017-10-04 16:56:06","21513"
"A1FVGVBZ27Q11J
","caus_thomas_boxes_v2","3QFUFYSY9YGFTR648TP4YM3DHDKF41","5","0","0","0","1","0",,"16539","2017-10-04 16:56:07","21514"
"A1CFIN7JU3X5NM","caus_thomas_boxes_v2","39OWYR0EPKSVRYKOX0DBEB7KCEGYF2","4","0","0","0","1","1",,"23291","2017-10-04 16:56:51","21515"
"AL12RG9EJZ60","caus_thomas_boxes_v2","3U5NZHP4LR3LWGJT135S45QLOOTHPS","4","0","0","1","1","1",,"24585","2017-10-04 16:57:07","21516"
"A1ZTCNK9TUCLYX","caus_thomas_boxes_v2","3U5JL4WY5KAWTDXP8NVQ4T3KLIG4XH","7","0","0","0","1","1",,"30797","2017-10-04 16:57:32","21517"
"A31A4YKVSOYRVS","caus_thomas_boxes_v2","3DY4FPOOA1PBQUUSJKQLO1H9XLLVRH","6","0","0","1","1","0",,"4296","2017-10-04 16:58:09","21518"
"A1PTBA7JEIEU1F
","caus_thomas_boxes_v2","32XVDSJFPZYBWNJYQ2AT0XQOU002MZ","4","0","0","1","0","0",,"129445","2017-10-04 16:58:31","21519"
"AMYRVTU53MLYO","caus_thomas_boxes_v2","3FDJT1UU74985W2IN9ZBJR1WP5W5KY","0","0","0","0","0","0",,"28615","2017-10-04 16:59:02","21520"
"A2FXAN6JI4UTCC
A2FXAN6JI4utcc","caus_thomas_boxes_v2","3RXCAC0YIRQMQSP1VGLZXJJUKEGG88","4","0","0","0","0","0",,"11175","2017-10-04 16:59:07","21521"
"A326WOXXK2ZPM3","caus_thomas_boxes_v2","3PS7W85Z8Z3Q92UHK8QKWYTUUE6T9J","6","0","0","0","0","1",,"30406","2017-10-04 16:59:30","21522"
"A2P4PPKOHX5UVI","caus_thomas_boxes_v2","3URFVVM165JKF6RJOBATEIHPSV0ZUU","4","0","0","0","0","0",,"46387","2017-10-04 16:59:40","21523"
"AZIAQJWXTSFUX","caus_thomas_boxes_v2","3UN61F00HWQUS0FDDT88K3NAKXQR5D","5","0","0","1","0","1",,"7000","2017-10-04 16:59:52","21524"
"A3OEQPP51YIIMQ","caus_thomas_boxes_v2","3GDTJDAPVUCMI2LN6JJUAO3RG0R8M7","5","0","0","0","1","0",,"3366","2017-10-04 17:00:07","21525"
"A16RCHXFKW7KWW","caus_thomas_boxes_v2","31LM9EDVOLTHK1269OVLCT1511WNJ7","4","0","0","1","1","1",,"33636","2017-10-04 17:00:07","21526"
"A2DTSE9AI3YTXX","caus_thomas_boxes_v2","34PGFRQONOC77VBK1PM88CEWUD0WJ7","6","0","0","0","0","0",,"17221","2017-10-04 17:01:22","21527"
"A10G3CUJ1XUTB
A10G3CUJ1XUTB
A10G3CUJ1XUTB
A10G3CUJ1XUTB
A10G3CUJ1XUTB
A10G3CUJ1XUTB
A10G3CUJ1XUTB
A1","caus_thomas_boxes_v2","3W2LOLRXLBGXAJ0GKGCEMS6SHNLRKY","4","0","0","1","0","1",,"28459","2017-10-04 17:01:31","21528"
"A1QYRXQWOPKHKS","caus_thomas_boxes_v2","345LHZDEDXTJUDKQ34FKAHCAD00U3R","4","0","0","1","1","1",,"14819","2017-10-04 17:01:49","21529"
"A2OLVYMQ4UEXHK","caus_thomas_boxes_v2","3VP0C6EFSGXZEO2ZD4MWQA70A52M60","4","0","0","1","1","1",,"26762","2017-10-04 17:02:12","21530"
"A1X5PGI1VSEQ08","caus_thomas_boxes_v2","3LO69W1SU3EH5Z9KP5U32O504EFGLU","6","0","0","0","0","0",,"21868","2017-10-04 17:03:04","21531"
"A3VUBM4J59JB8U","caus_thomas_boxes_v2","39OWYR0EPKSVRYKOX0DBEB7KCEJYF5","8","0","0","0","1","1",,"20566","2017-10-04 17:03:05","21532"
"A2QEVP5YWBCG8T","caus_thomas_boxes_v2","3VP0C6EFSGXZEO2ZD4MWQA70A536ML","7","0","0","0","1","1",,"16371","2017-10-04 17:03:12","21533"
"AEW1HTLYMOOD7","caus_thomas_boxes_v2","352YTHGROVEZ7NXA3JD417FQXSYH42","4","0","0","0","0","0",,"38802","2017-10-04 17:03:59","21534"
"A20U19B2BCX77Y","caus_thomas_boxes_v2","3Z7EFSHGN9FZOHA41218NRF8DVXXCN","4","0","0","1","1","0",,"52153","2017-10-04 17:04:20","21535"
"AV1QSUJUCS4CO","caus_thomas_boxes_v2","3QY5DC2MXRLEAP0JNZGMBQ17GQ8UF3","7","0","0","0","1","0",,"42058","2017-10-04 17:04:35","21536"
"A23GVZ7MEINT6J","caus_thomas_boxes_v2","3HYA4D452RK5QDRH4F6G576FXZP2FT","5","0","0","0","0","0",,"11989","2017-10-04 17:04:39","21537"
"A3ELPL91I2SVR4","caus_thomas_boxes_v2","3NL0RFNU0FOQ9DYI94G1EZVIP92K49","8","0","0","0","1","1",,"14670","2017-10-04 17:04:52","21538"
"A1UBNUY60OGSA1","caus_thomas_boxes_v2","30BXRYBRP4YBGPGUDPJNWZYHHLXHWO","3","0","0","0","0","0",,"15575","2017-10-04 17:05:18","21539"
"AXJJYIFR3JVRJ","caus_thomas_boxes_v2","31T4R4OBOSH5924DJPXATS2KB2JC78","7","0","0","0","1","1",,"16497","2017-10-04 17:05:34","21540"
"A5H767UHFV6JC","caus_thomas_boxes_v2","3HHRAGRYX86AWAP9OR4L2ON7V6O9OC","7","0","0","0","1","0",,"52804","2017-10-04 17:05:40","21541"
"A3V9SIYFMP74QP","caus_thomas_boxes_v2","36TFCYNS44BQ5PLKNUF9YICOQN3HXH","4","0","0","0","0","1",,"20648","2017-10-04 17:05:43","21542"
"A2NH6M60H95WIO","caus_thomas_boxes_v2","3OVR4I9USPKCKGWDM90YAL7ROFU4QL","4","0","0","0","0","0",,"12623","2017-10-04 17:06:07","21543"
"A1UY2W2FL9CWN","caus_thomas_boxes_v2","31Z0PCVWUKGMVJ6O5BS0I22OZOH7TK","2","0","0","1","0","0",,"11018","2017-10-04 17:06:29","21544"
"A2KV586MYOMSOT
","caus_thomas_boxes_v2","3NPI0JQDAO6B1PAO1XMHIOT9ZIPPTB","7","0","0","0","1","0",,"16598","2017-10-04 17:07:05","21545"
"A1BVW234RLOIY0","caus_thomas_boxes_v2","3CN4LGXD5XPLTINZDJHSN7ATNOB4YO","2","0","0","1","1","1",,"38731","2017-10-04 17:07:58","21546"
"A3H76JZIMF4515
A3H76JZIMF4515","caus_thomas_boxes_v2","3EKVH9QMEY58STDLD9BQH73ULM9D2T","6","0","0","0","0","1",,"25472","2017-10-04 17:08:42","21547"
"A3SKEW89V5S0DI","caus_thomas_boxes_v2","3NPFYT4IZC5C5TQ93OXRDI0NBNQGXH","4","0","0","1","1","1",,"15086","2017-10-04 17:09:00","21548"
"A221BYJVSHSS6C","caus_thomas_boxes_v2","3OF2M9AATGP6CAM7UX6R8V8RQ45KZL","4","0","0","0","1","0",,"39657","2017-10-04 17:09:24","21549"
"A1QVFB9FHEP6LR","caus_thomas_boxes_v2","3FUI0JHJPXZZVJ77OKJJN8MA0NL33X","4","0","0","1","1","1",,"15482","2017-10-04 17:10:05","21550"
"A2GLI65GHLT1Y8","caus_thomas_boxes_v2","3WS1NTTKEYDYU3O3PS22MJD00160F8","4","0","0","0","0","0",,"19261","2017-10-04 17:10:16","21551"
"A3E7OFH238490Y","caus_thomas_boxes_v2","337RC3OW0530NWZFE0TP2P8ART4VLZ","0","0","0","1","1","0",,"19338","2017-10-04 17:10:41","21552"
"AI3M000Z13OP9","caus_thomas_boxes_v2","3WRFBPLXRAP6ZN0H633YWMKG54B3NC","8","0","0","1","1","0",,"329339","2017-10-04 17:10:51","21553"
"A1P95QMAVQGHDS","caus_thomas_boxes_v2","39O5D9O87TTN8J3QHDUKGBQ460Y3CV","1","0","0","1","0","0",,"26623","2017-10-04 17:10:54","21554"
"A3180XTQ7IU9EY","caus_thomas_boxes_v2","3M0BCWMB8VX1PCD8DX9RAOVJM8TBW3","3","0","0","1","0","1",,"8206","2017-10-04 17:13:52","21555"
"A29CCD6DOOQCGB","caus_thomas_boxes_v2","3PPTZCWALQLSNDK272QO4HK0PAXZQS","7","0","0","0","1","0",,"18775","2017-10-04 17:14:44","21556"
"A6U5ZHN5Y953Q","caus_thomas_boxes_v2","31LVTDXBL7B8UPIY5GOF1SJ76NOLRT","5","0","0","1","1","1",,"10704","2017-10-04 17:16:14","21557"
"A2ZJOFTSMRNV9I","caus_thomas_boxes_v2","39O5D9O87TTN8J3QHDUKGBQ460YC34","8","0","0","1","1","0",,"72566","2017-10-04 17:16:17","21558"
"A1VEARF80HWOBQ","caus_thomas_boxes_v2","3CCZ6YKWR7KOO0JRJC8MTINGEBM596","1","0","0","0","0","1",,"51280","2017-10-04 17:16:55","21559"
"A3EN2OOFM0E2CW","caus_thomas_boxes_v2","3EKVH9QMEY58STDLD9BQH73ULMA2DJ","5","0","0","1","0","1",,"28691","2017-10-04 17:17:14","21560"
" A39AJDYX8UTZUJ
","caus_thomas_boxes_v2","3TMSXRD2X610CEVGB0G24CIA0W21WA","7","0","0","1","1","1",,"42093","2017-10-04 17:17:32","21561"
"A3K7UC7LUKV0ZV","caus_thomas_boxes_v2","3EG49X351UDA8013RBO51RNYH9L6X3","7","0","0","0","0","0",,"10613","2017-10-04 17:17:48","21562"
"A3G2874FQJU4YN","caus_thomas_boxes_v2","3RGU30DZTA9B2JH6XNGLZEC5WBOMJ8","4","0","0","1","1","0",,"22067","2017-10-04 17:17:49","21563"
"A3MS5EX282C5BH","caus_thomas_boxes_v2","3NS0A6KXC491AOQO46LCA3GYJNPGZF","6","0","0","0","0","1",,"38233","2017-10-04 17:17:57","21564"
"A2WCYILM19VQEW","caus_thomas_boxes_v2","3X73LLYYQ1FLTV7GLOS00GLQO9UHNY","0","0","0","1","0","1",,"29632","2017-10-04 17:18:29","21565"
"A2KD06NTTFYD1Y","caus_thomas_boxes_v2","36U2A8VAG1067KC2YB48UOZPKA2KYV","8","0","0","0","1","1",,"12896","2017-10-04 17:19:22","21566"
"A3ML3ZF116HJQ0","caus_thomas_boxes_v2","3LJ7UR74RHERHJJL6H8H6RCMJ48N4I","8","0","0","1","1","0",,"25015","2017-10-04 17:20:34","21567"
"A3LDF5ZH812XV2","caus_thomas_boxes_v2","37Z929RLG998EHQGTEQBDTYKM2XSTV","0","0","0","1","0","1",,"21624","2017-10-04 17:21:03","21568"
"A36L5AJ4CF3WCK","caus_thomas_boxes_v2","38JBBYETQOBNND68DI5YG4ID5C7E4K","4","0","0","0","1","1",,"23105","2017-10-04 17:21:03","21569"
" A26GF73MO3C4V","caus_thomas_boxes_v2","33TIN5LC04BMQOTBUEDJ4FL99GQY9F","1","0","0","0","1","1",,"26255","2017-10-04 17:21:52","21570"
"A2HHQU4D5Z8MQ8","caus_thomas_boxes_v2","32VNZTT0A75CWHBDZOPYFBHWK1XR4A","5","0","0","1","1","1",,"28231","2017-10-04 17:22:08","21571"
"A2A9FPR7W6BU3E","caus_thomas_boxes_v2","38BQUHLA9W1P3U83D08Q7ATRV5YOMT","7","0","0","0","0","0",,"30694","2017-10-04 17:22:35","21572"
"A1POO4OIUNLJAM
","caus_thomas_boxes_v2","3P1L2B7AD1Q5XCQIDO7B7XE2V08OLR","6","0","0","1","1","1",,"28246","2017-10-04 17:23:16","21573"
"A2HC9549CZAKNN","caus_thomas_boxes_v2","3ZGVPD4G6TI5FTCUO6KJ9MVN9HXZT7","4","0","0","1","1","1",,"22226","2017-10-04 17:25:59","21574"
"A2ZA6GLQTIF345","caus_thomas_boxes_v2","3IXEICO792K3RJSJM1N8CO2S4D16TO","4","0","0","0","0","0",,"34401","2017-10-04 17:26:45","21575"
" A1GOFX0UOEG283
 A1GOFX0UOEG283
A1GOFX0UOEG283","caus_thomas_boxes_v2","3A1COHJ8NJW0QOKCFM3HIJVVZEWH8B","0","0","0","1","0","1",,"15317","2017-10-04 17:26:53","21576"
"A10HEV2856GIQL","caus_thomas_boxes_v2","3Y9N9SS8LYCXDB94H9PV0H8MR0BD36","1","0","0","0","0","1",,"9020","2017-10-04 17:27:06","21577"
"A3JZHJMXBRW4JM","caus_thomas_boxes_v2","3PMBY0YE2749NLS6YMVU7OTQ6S99CJ","6","0","0","1","1","0",,"29167","2017-10-04 17:27:11","21578"
"A6ORRFI3XOACA","caus_thomas_boxes_v2","32AT8R96GLANEU55TJGLIPKM5G2USM","4","0","0","0","1","1",,"74767","2017-10-04 17:27:31","21579"
"A1GFN7WDJ0GX5V","caus_thomas_boxes_v2","3K772S5NP8CHZPU3SPPHATRHAHUEH7","3","0","0","1","0","1",,"10925","2017-10-04 17:27:59","21580"
"A3UE34H8129FA9","caus_thomas_boxes_v2","3TVSS0C0E111LY7PDJ0CAI15SFRWTC","6","0","0","0","0","0",,"24564","2017-10-04 17:28:35","21581"
"AL0SFLBAVTHU3","caus_thomas_boxes_v2","3OB0CAO74HQF5UBUSQ1BHWJXSTZHYP","2","0","0","0","0","1",,"47850","2017-10-04 17:29:19","21582"
"A2T22FJ28MIGI","caus_thomas_boxes_v2","3QECW5O0KH278FS5HID3KIOS8IQ5T7","4","0","0","1","0","1",,"11640","2017-10-04 17:29:19","21583"
"A3O2JUIF4DZQJU","caus_thomas_boxes_v2","3CPLWGV3MO0SEPPXNC48NZN25WNN9F","5","0","0","1","1","0",,"41717","2017-10-04 17:30:05","21584"
"AJITIN95JSBAR","caus_thomas_boxes_v2","3Y5140Z9DXHLSBUD7LND4HR0O1BPIW","4","0","0","0","1","0",,"51763","2017-10-04 17:30:12","21585"
"A3DJJFIYKJTYD9","caus_thomas_boxes_v2","37ZHEEHM6WNHW28UQWM90PYQ5P8737","6","0","0","1","0","1",,"11017","2017-10-04 17:30:26","21586"
"A32F070MKM1ICD","caus_thomas_boxes_v2","3UXUOQ9OKEYHGN7FZB1JNXCWBZ07A3","6","0","0","0","1","1",,"54214","2017-10-04 17:31:03","21587"
"A2CJY4787IR70K","caus_thomas_boxes_v2","36ZN444YTRZ37BICSLAYFHMAEWBIO4","7","0","0","0","1","0",,"27300","2017-10-04 17:31:06","21588"
"A1FS8SBR4SDWYG","caus_thomas_boxes_v2","3FFJ6VRIL1PI4UQTQ08NPGQSGT00I1","4","0","0","0","1","1",,"6400","2017-10-04 17:31:22","21589"
"A2MXCQ5D4DGY8C","caus_thomas_boxes_v2","3QAVNHZ3EM5GV8WH352T62UX6J5LAQ","6","0","0","0","1","1",,"51522","2017-10-04 17:31:54","21590"
"A34WAR0H85FL2K","caus_thomas_boxes_v2","3RRCEFRB7MDPGAUO3R38FWCS2FV4BB","0","0","0","1","0","0",,"19076","2017-10-04 17:31:54","21591"
"A38TZK07ON180S","caus_thomas_boxes_v2","33FBRBDW6O099G9WTUPG7SYFMMR8CT","4","0","0","0","0","1",,"18306","2017-10-04 17:31:58","21592"
"AKAFRPBEDWXFI","caus_thomas_boxes_v2","3A4NIXBJ760HX95608SYFTPX00ULMA","8","0","0","0","1","1",,"17982","2017-10-04 17:32:39","21593"
"AGNJKSH5LFKXZ","caus_thomas_boxes_v2","388U7OUMF72VXTTCGN2W38RJ3PJ0R5","6","0","0","1","1","0",,"19835","2017-10-04 17:32:46","21594"
" ASBCU0AE1U4XE","caus_thomas_boxes_v2","3QY7M81QH7NNS0G1B2E8HBFSGBU7KI","5","0","0","1","1","0",,"71550","2017-10-04 17:33:14","21595"
"A2JW2UOTSQNUDD","caus_thomas_boxes_v2","3R08VXYT7CWEN0AI0GXB5M9N3I3W73","8","0","0","0","1","0",,"25452","2017-10-04 17:35:22","21596"
"A3I98QLYJ40MRZ","caus_thomas_boxes_v2","326O153BMIZ0N9P16T6RJ8CJIP2EDZ","8","0","0","1","1","0",,"22528","2017-10-04 17:35:52","21597"
"A35DZ5AAKNOKQ8","caus_thomas_boxes_v2","3ERET4BTVMAR6J4UQZCSV76YB1J9KX","3","0","0","1","0","1",,"14787","2017-10-04 17:36:36","21598"
"A2SOY42HYS0Y8S","caus_thomas_boxes_v2","3VHHR074H3IYC6YJW2Q9WBS75B07LM","5","0","0","0","0","0",,"17596","2017-10-04 17:37:12","21599"
"AAEZQL4J6CQGM","caus_thomas_boxes_v2","39ASUFLU6X8ELFUIXT73DFFBY7DXEJ","8","0","0","0","0","0",,"23826","2017-10-04 17:37:19","21600"
"AIV842WA1CLZZ","caus_thomas_boxes_v2","336YQZE83VF3VK2L8LCRY4T0EAV5M7","4","0","0","1","1","1",,"10715","2017-10-04 17:38:11","21601"
"A178HLPTQ99LOG","caus_thomas_boxes_v2","30BUDKLTXDW5JWA8RNO8LWOR5845EI","8","0","0","1","1","1",,"15641","2017-10-04 17:38:15","21602"
" A3820B9RA4PEX3","caus_thomas_boxes_v2","3IQ1VMJRYTLLU6V8E8Z31T326PPA9J","3","0","0","0","1","0",,"38650","2017-10-04 17:39:06","21603"
"ANEHAR7JQLRQK","caus_thomas_boxes_v2","3OLF68YTN92UVGMLHUZVBPPD9NKAFB","1","0","0","0","0","0",,"25937","2017-10-04 17:39:18","21604"
"A27M6CGYSYFVGN","caus_thomas_boxes_v2","3E1QT0TDFPA0MJVWL4L2IVWAZRC8IW","4","0","0","0","0","1",,"16777","2017-10-04 17:39:30","21605"
"A36HD6ZW4ONZD6","caus_thomas_boxes_v2","3V0Z7YWSIY1UMAD74UBKNT91LTG2VK","4","0","0","0","1","1",,"19502","2017-10-04 17:39:43","21606"
"A2L29GJO43OCLO","caus_thomas_boxes_v2","3FTYUGLFSUM0RQW8VSDOFE665W35DP","8","0","0","1","0","0",,"21193","2017-10-04 17:40:59","21607"
"A3I9743KVD971V","caus_thomas_boxes_v2","3SB5N7Y3O35483KY0C8K44DC1G80G9","2","0","0","1","0","1",,"17151","2017-10-04 17:42:55","21608"
"A39M773CF286T5","caus_thomas_boxes_v2","3YHH42UU5BGKUVYZB350HWIKXXV0LG","8","0","0","1","0","1",,"42786","2017-10-04 17:43:17","21609"
"AOYEKAEEXR1QY","caus_thomas_boxes_v2","30BXRYBRP4YBGPGUDPJNWZYHHLZHWQ","8","0","0","1","1","0",,"20586","2017-10-04 17:44:11","21610"
"A168QBUOKNFWWK","caus_thomas_boxes_v2","3QRYMNZ7FYIBY4YBLI9PEZOEZ3RTNM","1","0","0","1","1","0",,"30782","2017-10-04 17:44:48","21611"
"A2ZFZ0IITVM1DT","caus_thomas_boxes_v2","39PAAFCODM1O697KN9VGOGIRL6TTV3","0","0","0","1","0","0",,"24461","2017-10-04 17:45:24","21612"
"AQPT8MI3NL8GW","caus_thomas_boxes_v2","3QXNC7EIPIWPTTXQM62ACNRPX3E90S","4","0","0","0","1","0",,"18923","2017-10-04 17:45:26","21613"
"A2BN6QV6VI2D6Y","caus_thomas_boxes_v2","3X66WABAJWJ0PVJVJZQ362BJ4ST3G8","0","0","0","0","0","1",,"38667","2017-10-04 17:45:36","21614"
"A3REDG6510328U","caus_thomas_boxes_v2","3BV8HQ2ZZW2YCNTAG1WRHJC0GOI6A5","6","0","0","1","1","0",,"34664","2017-10-04 17:46:13","21615"
"A25LRF75VMHM1H","caus_thomas_boxes_v2","3G5W44VEU7J6LTR245I2NOSLFEEKGZ","0","0","0","0","0","1",,"34790","2017-10-04 17:46:29","21616"
"A2I10BEXAZIR95","caus_thomas_boxes_v2","3R0T90IZ1SDO2VFECS14Z5FDA56CGF","5","0","0","0","0","1",,"2744","2017-10-04 17:46:48","21617"
"ACQ0B1X5APCD5","caus_thomas_boxes_v2","3RSDURM96AN3LKKS2PT5WTMK0D9EY8","5","0","0","0","0","0",,"44742","2017-10-04 17:47:36","21618"
"A22L7OVF9ISAHR","caus_thomas_boxes_v2","33ISQZVXPPNBLJZ9A65L9EUYCDECC5","0","0","0","1","0","0",,"35607","2017-10-04 17:48:00","21619"
"A3A0XE6EEV6TWE","caus_thomas_boxes_v2","34HJIJKLP5X4POSU88U8G86Z57D4VJ","8","0","0","0","1","1",,"13610","2017-10-04 17:48:21","21620"
"A3TO5TTEYUKB1K","caus_thomas_boxes_v2","3WSELTNVR334EL4MCE4KST4E0WTATK","5","0","0","0","0","1",,"17169","2017-10-04 17:49:48","21621"
"A3H4YITZVQN4UP","caus_thomas_boxes_v2","3E47SOBEYQX2YML92G17KHSTPIYCI7","4","0","0","0","0","1",,"41569","2017-10-04 17:50:12","21622"
"A1589I6Q42EF0F","caus_thomas_boxes_v2","3COPXFW7XBDCY6K17O8PHX6DG50KP2","4","0","0","1","1","1",,"19276","2017-10-04 17:50:37","21623"
"A3DA81ZFKYYGFC","caus_thomas_boxes_v2","308Q0PEVB8E00OE6QWRGIRRLJXVI9W","4","0","0","0","0","1",,"22971","2017-10-04 17:50:50","21624"
"ATD9IHXHMQURL
","caus_thomas_boxes_v2","3X31TUMD7XNK1KJH7M90V11U2P1L14","6","0","0","1","1","0",,"18609","2017-10-04 17:51:40","21625"
"A39EBLPHUIPAFH","caus_thomas_boxes_v2","352YTHGROVEZ7NXA3JD417FQXS1H45","0","0","0","0","1","0",,"40601","2017-10-04 17:52:25","21626"
"A35F9WNQIRAJ9L","caus_thomas_boxes_v2","3TR2532VIPV9DGWEA794AIFJ6BCJ6Y","7","0","0","0","0","1",,"26011","2017-10-04 17:53:08","21627"
"A1KDUWG2ZTOQWE","caus_thomas_boxes_v2","3I0BTBYZAXM4UU5YUIUQB4KG6CZY06","4","0","0","1","0","1",,"43031","2017-10-04 17:53:25","21628"
"A2SQNS3J389FRJ","caus_thomas_boxes_v2","3JCG6DTRV3RJ9LJBK67BDO8WK7GQQT","8","0","0","0","1","1",,"24354","2017-10-04 17:53:27","21629"
"AR9ZC60MDS2Q","caus_thomas_boxes_v2","3OONKJ5DKCKTK346MBIHTUIXJ6XOB7","5","0","0","0","0","1",,"31484","2017-10-04 17:53:46","21630"
"AJKSSTZYUH3O6","caus_thomas_boxes_v2","3LS2AMNW5FRGO96V5TF7OJDW56YQOL","8","0","0","0","1","0",,"24465","2017-10-04 17:53:46","21631"
"A37R9EMV8GHJGV","caus_thomas_boxes_v2","37W3JXSD669X2K6JNPNBIZTK7HEYW8","1","0","0","1","0","0",,"17653","2017-10-04 17:54:07","21632"
"A1FOETNZPX6EE7","caus_thomas_boxes_v2","38SKSKU7R1YV1QFFFTU6N0IGJRBLIV","8","0","0","1","1","1",,"37417","2017-10-04 17:55:16","21633"
"A1NDSEXBYNOUOS","caus_thomas_boxes_v2","3DQQ64TANGM3T6EIW2RS58083CBWPC","4","0","0","1","1","1",,"25323","2017-10-04 17:55:27","21634"
"A1W5A8Z3JUZN7S","caus_thomas_boxes_v2","37TD41K0AHARS0O57SVLOJYGYG1CS0","8","0","0","1","1","1",,"21892","2017-10-04 17:56:15","21635"
"A9J48W1C9IZAI
A9J48W1C9IZAI
","caus_thomas_boxes_v2","33C7UALJVLZPMDZYDX0WQWFOIP3816","3","0","0","1","0","1",,"11687","2017-10-04 17:56:36","21636"
"A24U7F6YX1WS3O","caus_thomas_boxes_v2","3QBD8R3Z21K9Z4JX7W8ULGCR9EH4OI","1","0","0","1","0","1",,"15675","2017-10-04 17:57:31","21637"
"A1UMI41YIH6JJS","caus_thomas_boxes_v2","39KFRKBFINWPXBXHW3W115GY4FGYOX","4","0","0","0","0","0",,"37861","2017-10-04 17:58:01","21638"
"A147I0K984NT1E","caus_thomas_boxes_v2","3GLB5JMZFXWY7NLSCOWFJBXVV5KDGI","7","0","0","0","1","1",,"11458","2017-10-04 17:58:52","21639"
"A2WCGKXM91INOU","caus_thomas_boxes_v2","3C44YUNSI1Q4K0ERF7M2DKBNWW7DPM","1","0","0","1","0","0",,"15160","2017-10-04 17:59:06","21640"
"ADE0JZRL5UDHF","caus_thomas_boxes_v2","3Z7ISHFUH0WMH9K6L89OIQZ0V4H8ZW","1","0","0","1","0","1",,"19930","2017-10-04 17:59:16","21641"
"A3D0TQ6SLPG3VQ","caus_thomas_boxes_v2","3VW04L3ZLT7NRFLZSYXV140IEDRXXV","8","0","0","0","1","1",,"25173","2017-10-04 17:59:26","21642"
"A383U9YJIBG4IA","caus_thomas_boxes_v2","32AT8R96GLANEU55TJGLIPKM5G9UST","8","0","0","0","0","0",,"10120","2017-10-04 18:01:23","21643"
"A1HCOJLTLOKAV4","caus_thomas_boxes_v2","33FBRBDW6O099G9WTUPG7SYFMMVC81","4","0","0","0","0","1",,"14734","2017-10-04 18:02:08","21644"
"A3PDHDQZZKCTT5","caus_thomas_boxes_v2","3Q5C1WP23M26ZVGWFZTTEC5XGZ4513","6","0","0","0","1","0",,"27196","2017-10-04 18:02:50","21645"
"A255ELJ8FE59P","caus_thomas_boxes_v2","3G2UL9A02DFGTLVC9YK77SAAFGF76I","7","0","0","0","1","1",,"29395","2017-10-04 18:02:53","21646"
"A2QKWF2AESL89K","caus_thomas_boxes_v2","3QAVNHZ3EM5GV8WH352T62UX6JALAV","6","0","0","1","1","0",,"20098","2017-10-04 18:04:08","21647"
"A510DQA9ROBC6","caus_thomas_boxes_v2","3STRJBFXOWSAQYD8O5H9M77A58OTKJ","0","0","0","0","1","1",,"13217","2017-10-04 18:04:39","21648"
"A2620VELR4LMLU","caus_thomas_boxes_v2","3KB8R4ZV1E85SQN8YS59OL9VSK9BGA","1","0","0","1","0","1",,"20669","2017-10-04 18:05:36","21649"
"A1HKS903W2E1DG","caus_thomas_boxes_v2","3SNVL38CI4TT4HBX2JMJXX76HMRCKM","6","0","0","0","0","1",,"6493","2017-10-04 18:05:51","21650"
"A1XJCPE83VNDVP","caus_thomas_boxes_v2","3018Q3ZVOIRRY6RU8PZPSE3WCBZRAR","6","0","0","1","0","1",,"38902","2017-10-04 18:06:43","21651"
"A2ACWPHIEDF8UH","caus_thomas_boxes_v2","3JZQSN0I3QBV57ZO3UR57B0G7I2GFY","8","0","0","0","1","1",,"23731","2017-10-04 18:07:07","21652"
"A28RR7H7BMA8IW
","caus_thomas_boxes_v2","3L4D84MILZTPA5GV6Q087949FPWJH3","6","0","0","0","0","0",,"20531","2017-10-04 18:08:34","21653"
"A2YMHHRV5ZIRKM","caus_thomas_boxes_v2","3XC1O3LBOSNLA4VQ95TA17KPU8WTLP","8","0","0","0","1","0",,"45934","2017-10-04 18:08:39","21654"
"A1L00PO1P8D6E3","caus_thomas_boxes_v2","3SKRO2GZ71S9HE1ZMMXZG1OFDP11KM","8","0","0","1","0","1",,"19475","2017-10-04 18:09:16","21655"
"A2MFJGRA5CHLB3","caus_thomas_boxes_v2","3F1567XTNW6DHM2P34WPRTI7A7H9QV","4","0","0","0","1","1",,"22133","2017-10-04 18:09:53","21656"
"A39P7QFA8VPMI8","caus_thomas_boxes_v2","3AAJC4I4FGTB1QGPCC6F7G8EBFDJZT","2","0","0","1","0","1",,"16527","2017-10-04 18:09:58","21657"
"AXDLEGI6OD6V","caus_thomas_boxes_v2","3IQ1VMJRYTLLU6V8E8Z31T326PVA9P","4","0","0","1","0","0",,"12995","2017-10-04 18:10:25","21658"
"A3S3M3QGQ3AK6E","caus_thomas_boxes_v2","3483FV8BEEK97KY63M3CB1T240V26Z","7","0","0","1","1","0",,"19525","2017-10-04 18:10:25","21659"
"A2YHHTA5ZM8BYV","caus_thomas_boxes_v2","3S4AW7T80BJ1TJG0U4S2TZ8XE9G4L5","2","0","0","0","0","1",,"23553","2017-10-04 18:10:44","21660"
"AKZ6TAIVHLWI2","caus_thomas_boxes_v2","32UTUBMZ7GXOAND3NN4VOMC5FZYVBK","1","0","0","1","1","1",,"31566","2017-10-04 18:11:13","21661"
"A3BT4FVWK82LPH","caus_thomas_boxes_v2","3GGAI1SQEVZOU5B0NVZZCAZA6RNCMS","7","0","0","0","1","1",,"15397","2017-10-04 18:11:17","21662"
"A27B32LMSFURBR","caus_thomas_boxes_v2","3WJEQKOXA83351SDAVKAMNLJ8D7A1G","4","0","0","1","1","0",,"49043","2017-10-04 18:11:21","21663"
"A2CF9SF2VIZ7DR","caus_thomas_boxes_v2","3FE2ERCCZX9VOX5G5G0IOENM0AGPOX","8","0","0","1","0","0",,"50070","2017-10-04 18:11:24","21664"
"A3VVR8NR3ED04C","caus_thomas_boxes_v2","3IX2EGZR7BK2ZZUY2VC2LD6F2YPJRV","4","0","0","1","1","0",,"14817","2017-10-04 18:11:28","21665"
"A2IH85BMB8V2UL","caus_thomas_boxes_v2","3S96KQ6I9M52CS7YWOVMIUCKLZVDTU","4","0","0","1","1","1",,"28979","2017-10-04 18:14:46","21666"
"A3KRG5CAFA4KI9","caus_thomas_boxes_v2","3QBD8R3Z21K9Z4JX7W8ULGCR9ELO46","4","0","0","1","1","1",,"20485","2017-10-04 18:14:59","21667"
"A1MOCZ5ZU14735","caus_thomas_boxes_v2","37WLF8U1WPR4O02WSS9GBXFWL0H6KP","8","0","0","1","1","0",,"26725","2017-10-04 18:15:26","21668"
"A2CZ10JX5FBO09
","caus_thomas_boxes_v2","3ZY8KE4ISJ4BETFS651LJB741ZZVQW","8","0","0","0","1","1",,"19517","2017-10-04 18:15:52","21669"
"A2KI7W45F6HRVY","caus_thomas_boxes_v2","3A1COHJ8NJW0QOKCFM3HIJVVZEY8H4","7","0","0","1","0","1",,"20321","2017-10-04 18:16:04","21670"
"A23QWTFGXFJHS7","caus_thomas_boxes_v2","31JLPPHS2UVOH80T7I3BBBKLVEPO3L","0","0","0","1","1","0",,"13923","2017-10-04 18:16:47","21671"
"A1EIBL2B06W1D7","caus_thomas_boxes_v2","3TXWC2NHNZRPU2H2V8LUMTX8SV39SL","4","0","0","0","0","0",,"10896","2017-10-04 18:18:44","21672"
"A31DI99CWPTJBK","caus_thomas_boxes_v2","3CCZ6YKWR7KOO0JRJC8MTINGEBV59F","1","0","0","0","1","0",,"14885","2017-10-04 18:20:12","21673"
"ASSR4XKHOQOQF","caus_thomas_boxes_v2","3DUZQ9U6SMPNR9U5Y9QQEBM5JNLSVJ","8","0","0","1","0","0",,"44551","2017-10-04 18:20:56","21674"
"A2WYQSWF17OQ07
","caus_thomas_boxes_v2","3ZWFC4W1UU8MUX82J5LH6FEN9RFFRV","2","0","0","1","1","0",,"21985","2017-10-04 18:22:46","21675"
"A17VNBLHLGTMD1","caus_thomas_boxes_v2","3E47SOBEYQX2YML92G17KHSTPI4ICJ","7","0","0","1","1","0",,"35798","2017-10-04 18:22:48","21676"
"AI9NJ89EXVDY1","caus_thomas_boxes_v2","3EA3QWIZ4IWJK3NKO2WX9RSXD44IT2","1","0","0","1","1","1",,"20893","2017-10-04 18:22:55","21677"
"A31RHHKCH5RKNW","caus_thomas_boxes_v2","3VNL7UK1XFKZACLUNUQC6UF5XCCFT8","4","0","0","0","0","1",,"24578","2017-10-04 18:23:30","21678"
"A2TO2AK4UCU98J","caus_thomas_boxes_v2","37WLF8U1WPR4O02WSS9GBXFWL0I6KQ","4","0","0","1","1","1",,"20172","2017-10-04 18:23:51","21679"
"A2DP32IQRO1N6K","caus_thomas_boxes_v2","3LWJHTCVCCNMIWT26QWH1P4ID5DFQU","0","0","0","1","1","1",,"28373","2017-10-04 18:23:55","21680"
"A1NYFTOY47Z7F4","caus_thomas_boxes_v2","3IJXV6UZ1XK64OASKDR29CRFPJ7IRP","7","0","0","0","1","0",,"32934","2017-10-04 18:24:03","21681"
"A1HOEA3Y6W3FPZ","caus_thomas_boxes_v2","3M23Y66PO282CJF4X1II2J662UV6S7","1","0","0","1","0","1",,"25099","2017-10-04 18:25:10","21682"
"A1BGZSZUUG4DNE","caus_thomas_boxes_v2","3WMOAN2SRBYQBW20QD94FHCZWOENV3","4","0","0","0","1","0",,"5892","2017-10-04 18:25:12","21683"
"A3L6TO881Q0GZS","caus_thomas_boxes_v2","3AZHRG4CU4L3ER8A5X10LAO3XBA30B","4","0","0","0","0","1",,"25807","2017-10-04 18:25:33","21684"
"A2B1YSMEHN1G2K","caus_thomas_boxes_v2","3HFNH7HEMHFSWWPXHA2ZJA4UEKCQG3","3","0","0","0","0","0",,"44452","2017-10-04 18:26:00","21685"
"AFWLCJ7CTGFEV","caus_thomas_boxes_v2","39PAAFCODM1O697KN9VGOGIRL60TVA","1","0","0","0","0","0",,"31913","2017-10-04 18:28:02","21686"
"A3S9V3VDQ3O086","caus_thomas_boxes_v2","3COPXFW7XBDCY6K17O8PHX6DG58PKF","2","0","0","1","0","1",,"29538","2017-10-04 18:29:07","21687"
"A3R0QO6884CV1P","caus_thomas_boxes_v2","3LJ7UR74RHERHJJL6H8H6RCMJ4HN4R","6","0","0","1","1","1",,"46113","2017-10-04 18:29:10","21688"
"A39FOP7Q9GRE2R","caus_thomas_boxes_v2","3ERET4BTVMAR6J4UQZCSV76YB1QK9F","7","0","0","1","0","0",,"48036","2017-10-04 18:31:39","21689"
"A3T19O1BCEJEAP","caus_thomas_boxes_v2","3WR9XG3T63C2EYRYQARSAUQWJPD741","0","0","0","0","1","0",,"30720","2017-10-04 18:31:48","21690"
"AGET1GAI3SLNN","caus_thomas_boxes_v2","3JNQLM5FT4NRQ51DQQ9E0KBZUVM2L9","6","0","0","0","1","1",,"22511","2017-10-04 18:31:55","21691"
"A14KUP0LLIWLOO","caus_thomas_boxes_v2","3DBQWDE4Y6Z9D2NLKMRRBJI0J0D5NF","2","0","0","0","1","0",,"25507","2017-10-04 18:33:09","21692"
"A2STXZFG083AAB
","caus_thomas_boxes_v2","3QILPRALQ5WS0K6NIKYUN3SRLQE8NK","2","0","0","1","0","0",,"14270","2017-10-04 18:33:52","21693"
"A1HB76XJP9SBM0
","caus_thomas_boxes_v2","3X4JMASXCMA8HMCNKQG63TMFL3OB0B","0","0","0","0","0","0",,"37062","2017-10-04 18:33:58","21694"
"A3HZQP1PZBWS1O","caus_thomas_boxes_v2","3BF51CHDTVBI8ZF9KIQ2P4PDGGT0HG","1","0","0","1","1","0",,"45249","2017-10-04 18:34:05","21695"
"A2MACDVP9MWKHA","caus_thomas_boxes_v2","3A1PQ49WVHIIFO0RG1U2398NL8ZH10","2","0","0","1","0","1",,"25006","2017-10-04 18:36:24","21696"
"A1M9LADGJ919L9","caus_thomas_boxes_v2","32KTQ2V7RDGMW74XBBP8AKY206M9MA","2","0","0","1","0","1",,"39770","2017-10-04 18:37:06","21697"
"AIP944O0SSJM2","caus_thomas_boxes_v2","39RP059MEHU5K0JU9V341QTSO6PMBX","8","0","0","0","0","1",,"31999","2017-10-04 18:37:26","21698"
"AHAY66HRPPO5C","caus_thomas_boxes_v2","3DZQRBDBSLG3F0SMEZKKVGUMS3US3O","4","0","0","0","0","1",,"17117","2017-10-04 18:38:35","21699"
"AHUF4DFE1BURS","caus_thomas_boxes_v2","30LSNF239UWP04T75NC184J7DRT2IW","5","0","0","1","1","0",,"18323","2017-10-04 18:40:09","21700"
"A18GLXN59JTX9F
","caus_thomas_boxes_v2","3U5JL4WY5KAWTDXP8NVQ4T3KLISX4M","5","0","0","1","1","0",,"16848","2017-10-04 18:40:14","21701"
"A2QR5A1Z4D9SU1","caus_thomas_boxes_v2","3ZQIG0FLQEHGYQBEIE0RB0PQP0JWV4","8","0","0","0","0","1",,"31570","2017-10-04 18:40:25","21702"
"A75JLXESFBJ0","caus_thomas_boxes_v2","3LWJHTCVCCNMIWT26QWH1P4ID5FFQW","7","0","0","1","1","1",,"21756","2017-10-04 18:42:52","21703"
"A1ML55XFL53WOM","caus_thomas_boxes_v2","3LUY3GC63Z1O3RDHOUJGDS1RAL97PS","8","0","0","0","0","1",,"19498","2017-10-04 18:42:55","21704"
"A36I8EWDC03SG8","caus_thomas_boxes_v2","3UXUOQ9OKEYHGN7FZB1JNXCWBZAA7G","8","0","0","1","0","1",,"36775","2017-10-04 18:43:00","21705"
"A3PFUR5M7DOZCZ","caus_thomas_boxes_v2","3WETL7AQWT929YUB237C25KUEJN530","4","0","0","1","1","1",,"54277","2017-10-04 18:43:44","21706"
"A3KUZ2JNKHZBQK","caus_thomas_boxes_v2","3I7DHKZYGN1XPAA4MY8E3E9RH9S5F9","0","0","0","1","0","1",,"14903","2017-10-04 18:44:27","21707"
"A2XHV907EXNNDT","caus_thomas_boxes_v2","345LHZDEDXTJUDKQ34FKAHCAD0G3UG","1","0","0","0","0","0",,"32418","2017-10-04 18:45:04","21708"
"A1XV6Y7S6QTWXF","caus_thomas_boxes_v2","3RXPCZQMQPC4FS5GWVCKI9WM68N1GM","8","0","0","0","0","1",,"26167","2017-10-04 18:45:29","21709"
"A1YH4LT7EAYT47","caus_thomas_boxes_v2","3JZQSN0I3QBV57ZO3UR57B0G7I4GF0","4","0","0","1","1","1",,"9963","2017-10-04 18:45:39","21710"
"A2MHIYYCFJBUZX","caus_thomas_boxes_v2","35GCEFQ6I5P0GCE09RESR9RPFIV3Z5","4","0","0","1","1","0",,"25400","2017-10-04 18:45:42","21711"
"A30KJAZCNCECX2","caus_thomas_boxes_v2","3570Y55XZPK15YGJ8KJTWW7WDTWGYZ","1","0","0","1","0","1",,"11168","2017-10-04 18:45:46","21712"
"A3HOBJ4PJUOCUN","caus_thomas_boxes_v2","3AAPLD8UCCIJO8C0IKEC9FRIDRRTHM","4","0","0","1","0","1",,"24032","2017-10-04 18:47:58","21713"
"A3BUKQ7ZGNS3UU","caus_thomas_boxes_v2","3M23Y66PO282CJF4X1II2J662UX6S9","4","0","0","1","1","0",,"47017","2017-10-04 18:47:59","21714"
"A25KAC1KSWKXVD","caus_thomas_boxes_v2","3NG53N1RLVKS35I0YZBMRSXML5G8PH","8","0","0","1","1","0",,"57675","2017-10-04 18:48:01","21715"
"A38430CKSXSBLI","caus_thomas_boxes_v2","3A7Y0R2P2OPMWVGABUIUAVS33FJJX0","6","0","0","1","1","1",,"16295","2017-10-04 18:48:12","21716"
"A11IY14K9T6UGE","caus_thomas_boxes_v2","3ON104KXQKXH4DSZYIZ42APDCGNW4T","4","0","0","0","0","1",,"27866","2017-10-04 18:48:42","21717"
"A179LPU3JDXI8I","caus_thomas_boxes_v2","3AAPLD8UCCIJO8C0IKEC9FRIDRQTHL","8","0","0","0","0","1",,"31640","2017-10-04 18:49:51","21718"
"A3S70GX1G15PV8","caus_thomas_boxes_v2","3WMINLGALB4NS42BQS9U3J4ACA1CAB","6","0","0","1","0","1",,"47215","2017-10-04 18:50:08","21719"
"A1J0B64BYT0089","caus_thomas_boxes_v2","3AMW0RGHOD3D6C5441059PNHA0FPNM","8","0","0","0","1","0",,"30298","2017-10-04 18:52:05","21720"
"A14A8J5H98KLO6","caus_thomas_boxes_v2","3C6FJU71TQUKAGHESP8A0B8NM1BUYD","1","0","0","1","0","0",,"30899","2017-10-04 18:52:10","21721"
"A2E2O8EBNS694H","caus_thomas_boxes_v2","3A4NIXBJ760HX95608SYFTPX004MLL","0","0","0","0","0","0",,"35247","2017-10-04 18:52:22","21722"
"A3AS4FEB057TRG
A3AS4FEB057TRG","caus_thomas_boxes_v2","3IOEN3P9S7K2IZGAKI3Y6IJXCUE16E","4","0","0","1","1","1",,"12136","2017-10-04 18:52:23","21723"
"A2539PUSDD137T","caus_thomas_boxes_v2","37WLF8U1WPR4O02WSS9GBXFWL0K6KS","6","0","0","0","0","0",,"40060","2017-10-04 18:52:31","21724"
"A1C3ZG509DEE69","caus_thomas_boxes_v2","3L4PIM1GQTHSUOPXOVD5V0L3F27RY6","3","0","0","1","0","1",,"190547","2017-10-04 18:52:50","21725"
"A2ODEPSKNQJU1","caus_thomas_boxes_v2","3XUHV3NRVKZH361AHOWE6ZL4XO65H8","4","0","0","0","1","0",,"21228","2017-10-04 18:53:42","21726"
"A1ND4NNS6YX1SD","caus_thomas_boxes_v2","33TIN5LC04BMQOTBUEDJ4FL99G1Y9Q","8","0","0","1","1","0",,"29699","2017-10-04 18:54:26","21727"
"eOy5055632","caus_thomas_boxes_v2","39O5D9O87TTN8J3QHDUKGBQ460A3C7","4","0","0","1","1","0",,"20533","2017-10-04 18:54:53","21728"
"A1ZABOH3AJUJ0H
","caus_thomas_boxes_v2","3KMS4QQVK2R07TV7TLCK53S9EZOFK5","4","0","0","1","0","0",,"42789","2017-10-04 18:55:27","21729"
"AFR4DOMB80RM7","caus_thomas_boxes_v2","32XVDSJFPZYBWNJYQ2AT0XQOU0E2MD","2","0","0","1","1","0",,"124407","2017-10-04 18:56:00","21730"
"A53NG79F6CV5N","caus_thomas_boxes_v2","3Q5C1WP23M26ZVGWFZTTEC5XGZA155","7","0","0","0","1","0",,"37886","2017-10-04 18:57:19","21731"
"AHTZ9RQ6G5","caus_thomas_boxes_v2","34BBWHLWHACBCKREJ718WBZWHYPIWV","6","0","0","1","1","0",,"31177","2017-10-04 18:57:44","21732"
"A1JMD1M91WRWGB","caus_thomas_boxes_v2","3FTOP5WARFPEZ5AZ8ITN1H5ST800JO","0","0","0","1","0","1",,"10964","2017-10-04 19:01:32","21733"
"A5TIG718GB7IM","caus_thomas_boxes_v2","3XUHV3NRVKZH361AHOWE6ZL4XO75H9","0","0","0","1","0","1",,"21294","2017-10-04 19:03:17","21734"
"A1TB0XEEPXJYP0","caus_thomas_boxes_v2","34QN5IT0TZSPFOEGHEWWCRWEDX680C","6","0","0","0","1","1",,"2726","2017-10-04 19:03:51","21735"
"AYXUD1M6PC1O4","caus_thomas_boxes_v2","369J354OFDBZME6D21O1D5N3EJ5G61","4","0","0","1","1","0",,"17884","2017-10-04 19:05:24","21736"
"AKZ2CEPX7OFUN","caus_thomas_boxes_v2","3D8YOU6S9ELIRW78M6DIHKOUNRK6UR","7","0","0","0","1","0",,"16203","2017-10-04 19:06:10","21737"
"A3NGERRLPQMDNI","caus_thomas_boxes_v2","3PMBY0YE2749NLS6YMVU7OTQ6SLC9Y","4","0","0","1","1","0",,"11957","2017-10-04 19:06:34","21738"
"A27UCGYAIR8ZLA","caus_thomas_boxes_v2","3UN61F00HWQUS0FDDT88K3NAKX5R5S","4","0","0","1","1","0",,"23540","2017-10-04 19:06:42","21739"
"A3TZEMMXAQK5QW
A3TZEMMXAQK5QW","caus_thomas_boxes_v2","33OOO72IVHMS701KWS0BYOU20ZOCTY","8","0","0","0","0","0",,"74751","2017-10-04 19:06:45","21740"
"A3MZE4FJ658B79","caus_thomas_boxes_v2","3J4Q2Z4UTY4OTIFXWF6H5DQI886WQC","0","0","0","0","0","1",,"20430","2017-10-04 19:07:59","21741"
"A1HQJ2WY81OKSJ","caus_thomas_boxes_v2","3U5JL4WY5KAWTDXP8NVQ4T3KLIVX4P","7","0","0","0","0","0",,"14154","2017-10-04 19:08:23","21742"
"A3DX21ASK1EALY","caus_thomas_boxes_v2","3Q8GYXHFEP3QMYQUVWIDV8OOKW35C1","4","0","0","0","0","1",,"19103","2017-10-04 19:09:45","21743"
"A165AKLNGB9T3V","caus_thomas_boxes_v2","39ASUFLU6X8ELFUIXT73DFFBY7PXEV","4","0","0","0","0","0",,"19316","2017-10-04 19:09:47","21744"
"A3S1YTO9FEKQUV","caus_thomas_boxes_v2","3A7Y0R2P2OPMWVGABUIUAVS33FLXJG","0","0","0","1","0","0",,"38330","2017-10-04 19:10:13","21745"
"A17VJGXGBNEL9E","caus_thomas_boxes_v2","3M1CVSFP606RM5CUVAAPNOTRGP4QAW","4","0","0","0","0","1",,"25808","2017-10-04 19:10:37","21746"
"A2UBNWFE5E72WC","caus_thomas_boxes_v2","3Y4W8Q93LZLHPKBN1JV1JC05IKDDVC","8","0","0","0","0","0",,"19715","2017-10-04 19:11:39","21747"
"A1AF4X22JWJ4QE","caus_thomas_boxes_v2","369J354OFDBZME6D21O1D5N3EJ66GS","4","0","0","1","1","1",,"26843","2017-10-04 19:12:12","21748"
"AHEY8IUUKIYSR","caus_thomas_boxes_v2","34FNN24DCMA3P1RZRO02SZG7NKK5Y8","3","0","0","0","0","1",,"30107","2017-10-04 19:13:28","21749"
"A1D1G7G88VWT22","caus_thomas_boxes_v2","3R0T90IZ1SDO2VFECS14Z5FDA5HGCU","4","0","0","0","0","1",,"30958","2017-10-04 19:14:21","21750"
"A4YUMN5PUEF6G","caus_thomas_boxes_v2","3OS4RQUCR9GZEQRDN8ZR609JR5HBFJ","6","0","0","0","0","0",,"45140","2017-10-04 19:14:57","21751"
"A20VKYV1BCNFFV","caus_thomas_boxes_v2","3SUWZRL0MYE120AMW6YDD22R13RE6J","5","0","0","0","0","1",,"26008","2017-10-04 19:16:02","21752"
"A2TZL02QEY89G8","caus_thomas_boxes_v2","3JBT3HLQF837N1JN7PBZ4CUQKEQZPG","4","0","0","0","0","0",,"11117","2017-10-04 19:17:05","21753"
"A3HAM887YE41C","caus_thomas_boxes_v2","3DZQRBDBSLG3F0SMEZKKVGUMS3YS3S","7","0","0","0","1","0",,"14156","2017-10-04 19:17:35","21754"
"A1DUPOUC9RNU4L","caus_thomas_boxes_v2","3C2NJ6JBKAIHE54Y23PTDCFOZQQN20","1","0","0","1","0","1",,"35283","2017-10-04 19:17:37","21755"
"A5WY02WF02V49","caus_thomas_boxes_v2","36H9ULYP62V5W9PPB0C84OSWZAQFJ8","4","0","0","0","0","0",,"13310","2017-10-04 19:17:55","21756"
"A7T06JMP6BTDS","caus_thomas_boxes_v2","3UOUJI6MTDFVABR4NTM8HX1EKVGUX6","3","0","0","0","0","1",,"16108","2017-10-04 19:18:41","21757"
"A3PB0KSWXYUEAY","caus_thomas_boxes_v2","3QXNC7EIPIWPTTXQM62ACNRPX3P903","5","0","0","0","1","1",,"4824","2017-10-04 19:19:56","21758"
"AKQ15X3BG93GM","caus_thomas_boxes_v2","33FBRBDW6O099G9WTUPG7SYFMM58C7","5","0","0","1","0","1",,"23907","2017-10-04 19:21:14","21759"
"A2D6QNCAN9X77R","caus_thomas_boxes_v2","3QEMNNSB2X0FEUARJLSLDYK2W2BD7P","4","0","0","1","1","1",,"17727","2017-10-04 19:21:27","21760"
"A1VIEFZYI54JHP","caus_thomas_boxes_v2","3V26SBZTBDF115LTUY91VAW4UDXZZ1","4","0","0","1","0","1",,"20892","2017-10-04 19:21:29","21761"
"A1DYMAJ89E0YT2","caus_thomas_boxes_v2","3M81GAB8A0KW5FHM1OALIZDXY7RBQE","5","0","0","1","0","1",,"30065","2017-10-04 19:21:35","21762"
"A1Y85WZKSLS5QF","caus_thomas_boxes_v2","3RXPCZQMQPC4FS5GWVCKI9WM68RG15","2","0","0","1","0","1",,"69767","2017-10-04 19:21:35","21763"
"A1P14RA5FX3HPD","caus_thomas_boxes_v2","34J10VATJFZ6SNVS7Y224MHATXAQI1","2","0","0","1","0","0",,"19156","2017-10-04 19:23:24","21764"
"A29ITVBZALLDPG","caus_thomas_boxes_v2","338JKRMM260E9CDRCKNVEA1QP2AHAT","6","0","0","1","0","0",,"27953","2017-10-04 19:24:24","21765"
"A33XV57T69HVA","caus_thomas_boxes_v2","3NJM2BJS4W7UF88DFBRRTET5BW5CPV","5","0","0","1","1","1",,"24376","2017-10-04 19:24:44","21766"
"AO33H4GL9KZX9","caus_thomas_boxes_v2","3IXEICO792K3RJSJM1N8CO2S4DF6T2","8","0","0","0","1","0",,"17971","2017-10-04 19:25:45","21767"
"A3SFU7MZWZN8HN","caus_thomas_boxes_v2","35L9RVQFCOJYOLRPIP4MEBDKW52HU5","1","0","0","1","1","1",,"25478","2017-10-04 19:26:05","21768"
"A3445FTO62DGIX","caus_thomas_boxes_v2","3H7Z272LX78NIC2JSOKQWXJS55JPLO","7","0","0","0","1","1",,"22305","2017-10-04 19:27:04","21769"
"
27605038TD","caus_thomas_boxes_v2","33CID57104UGBNXWUQNJJUGR09RL38","0","0","0","1","0","1",,"35640","2017-10-04 19:27:30","21770"
"A23PQPECIUVKHC","caus_thomas_boxes_v2","32M8BPYGATNFFY1E42XQA8D8NA2IGZ","8","0","0","1","1","1",,"19188","2017-10-04 19:28:52","21771"
"A3UXYKEUWZMEGO
A3UXYKEUWZMEGO
A3UXYKEUWZMEGO
A3UXYKEUWZMEGO","caus_thomas_boxes_v2","3PZDLQMM0TMYN177DDGFX1LC0ME2CZ","0","0","0","1","1","0",,"27394","2017-10-04 19:29:43","21772"
"A1ZPYSX30BDIVW","caus_thomas_boxes_v2","3RU7GD8VPOUAMPX9CXHR8JXNXZRSP5","8","0","0","0","1","0",,"15425","2017-10-04 19:30:38","21773"
"ADJUMNMLC8H1I","caus_thomas_boxes_v2","337RC3OW0530NWZFE0TP2P8ARTKLV5","8","0","0","0","0","0",,"24938","2017-10-04 19:31:09","21774"
"A2XMFTY9WB05U6","caus_thomas_boxes_v2","3SB4CE2TJVWBV2D6HO5HHWPKDSUAXG","5","0","0","1","0","0",,"6425","2017-10-04 19:31:12","21775"
"A30J399CCSJPNT","caus_thomas_boxes_v2","3U8YCDAGXPHVLSEC38DWYIHE73V0QI","4","0","0","0","0","0",,"30338","2017-10-04 19:31:37","21776"
"A42UZIPIKDFI5","caus_thomas_boxes_v2","3FE7TXL1LIO2H2HQIVHAH6AT41F2Q4","0","0","0","1","0","0",,"24519","2017-10-04 19:31:53","21777"
"A1NP7GSYXECK2H","caus_thomas_boxes_v2","3570Y55XZPK15YGJ8KJTWW7WDT0YGL","4","0","0","1","1","1",,"30583","2017-10-04 19:32:11","21778"
"A1DV8PWJ0GYEV","caus_thomas_boxes_v2","3VAR3R6G1P2AI56ZJZY72SSWB0P8O5","2","0","0","1","1","0",,"22769","2017-10-04 19:33:15","21779"
"A20N3RO71GAAX7","caus_thomas_boxes_v2","3X0H8UUIT1P06YUAOJVM0D5JQWUSW0","8","0","0","0","1","1",,"23256","2017-10-04 19:33:20","21780"
"A28A2H0UA2QZAN","caus_thomas_boxes_v2","3TMFV4NEP8FINEF1ALPHJM5IE2O8WH","5","0","0","1","0","0",,"27552","2017-10-04 19:34:15","21781"
"ANNJR0H5H4M18","caus_thomas_boxes_v2","308Q0PEVB8E00OE6QWRGIRRLJX89I0","2","0","0","1","1","0",,"31821","2017-10-04 19:36:48","21782"
"A22NFSHSS99QMB","caus_thomas_boxes_v2","37Q970SNZE975XE7RV617NFPUJMS12","8","0","0","1","0","1",,"14382","2017-10-04 19:39:03","21783"
"A60BJBCD1321O","caus_thomas_boxes_v2","3GM6G9ZBKNY5GMDB9HUP1KZEUDVMTT","1","0","0","1","0","0",,"45187","2017-10-04 19:39:08","21784"
"A2JLHPINQIBZBB","caus_thomas_boxes_v2","3IGI0VL647LVLCT3P1NQKPIR0VONO8","7","0","0","1","0","1",,"16557","2017-10-04 19:40:21","21785"
"A2RLVKMYAK2M3F","caus_thomas_boxes_v2","3CFVK00FWLMF86KEDSLHQXSBA0UL6F","8","0","0","1","1","0",,"18290","2017-10-04 19:41:09","21786"
"A2X4LAOZ7M5JUF","caus_thomas_boxes_v2","3M1CVSFP606RM5CUVAAPNOTRGP7QAZ","0","0","0","0","0","0",,"33196","2017-10-04 19:41:26","21787"
"A3CW1GLV51CDQD","caus_thomas_boxes_v2","3X87C8JFV6CVM1YOCAWG8ONX2VESQX","2","0","0","1","1","1",,"36384","2017-10-04 19:41:28","21788"
"A2N04FYJQCI704","caus_thomas_boxes_v2","3Q5ZZ9ZEVOGOAV0HEK28TMS5U5L851","6","0","0","1","1","0",,"41929","2017-10-04 19:43:58","21789"
"ABOEYY9Y0PFRI","caus_thomas_boxes_v2","3PMBY0YE2749NLS6YMVU7OTQ6SP9CZ","4","0","0","0","1","1",,"15331","2017-10-04 19:44:49","21790"
"AR2BDL1QQGN53","caus_thomas_boxes_v2","3SLE99ER0NE5J7IDOKTY9SP13ADZBX","4","0","0","1","0","0",,"26054","2017-10-04 19:45:09","21791"
"AGOA2P50SFR1E","caus_thomas_boxes_v2","36U2A8VAG1067KC2YB48UOZPKAIYKP","0","0","0","1","1","0",,"49899","2017-10-04 19:45:10","21792"
"A1AQILM7ERX2D0","caus_thomas_boxes_v2","3II4UPYCOJ8PKCF6FK1RDP1X1S5DQP","5","0","0","1","1","0",,"36144","2017-10-04 19:45:17","21793"
"A3J64XWXR1DB78","caus_thomas_boxes_v2","3BV8HQ2ZZW2YCNTAG1WRHJC0GOWA6N","8","0","0","0","1","0",,"22223","2017-10-04 19:48:18","21794"
"A5A3TSXJ0HF0V
","caus_thomas_boxes_v2","30JNVC0OR9L6WSK81GKH4AGVTKYQHB","3","0","0","1","0","0",,"31455","2017-10-04 19:50:30","21795"
"A7LQW8F8NK0YZ","caus_thomas_boxes_v2","3ZY8KE4ISJ4BETFS651LJB741Z9VQ6","0","0","0","0","0","1",,"29970","2017-10-04 19:50:33","21796"
"AAR6MYZQ0EYMZ","caus_thomas_boxes_v2","3MYYFCXHJ38L7R2ZJDVMG73PIS0G4H","3","0","0","0","1","0",,"22439","2017-10-04 19:51:06","21797"
"ARZEZGD9TYK3Q","caus_thomas_boxes_v2","3A0EX8ZRN8P5EH88SYRFVLGZXGBBYK","5","0","0","0","0","0",,"18403","2017-10-04 19:51:56","21798"
"A29K11ZY18ZDG4","caus_thomas_boxes_v2","3NXNZ5RS1AY3B4XA75NJR21C5HW792","4","0","0","1","0","0",,"15572","2017-10-04 19:53:10","21799"
"ACY779V092XNJ","caus_thomas_boxes_v2","3R3YRB5GRF4JEYJBCJUUXPQGJAFUAA","5","0","0","1","0","0",,"4193","2017-10-04 19:54:07","21800"
"AENAFU04UQLP5","caus_thomas_boxes_v2","3WJEQKOXA83351SDAVKAMNLJ8DHA1Q","4","0","0","1","1","1",,"28377","2017-10-04 19:54:36","21801"
" A3KR3JXXEHZDGV","caus_thomas_boxes_v2","3JMSRU9HQIVMHQPNXE6LPUIQIWMEVE","1","0","0","0","0","0",,"40915","2017-10-04 19:55:10","21802"
"A397QMUM40C4SH","caus_thomas_boxes_v2","3YJ6NA41JBHHNMEJP38DGI601GHPJP","7","0","0","1","0","0",,"14194","2017-10-04 19:55:14","21803"
"ACUS2MYKG46U1","caus_thomas_boxes_v2","3WYGZ5XF3WG9BY0TZ5CJC2BO3POSK7","2","0","0","1","1","1",,"5713","2017-10-04 19:55:39","21804"
"A3JRKOPA28BOOX","caus_thomas_boxes_v2","3PPTZCWALQLSNDK272QO4HK0PAGZQB","6","0","0","0","1","1",,"38845","2017-10-04 19:56:43","21805"
"A1EYJNJFSRMDWW","caus_thomas_boxes_v2","358UUM7WRZ49F4TW1MN5IN16B30R77","6","0","0","0","0","1",,"11648","2017-10-04 19:56:58","21806"
"A2A8N5CUKSZA0S","caus_thomas_boxes_v2","3F0BG9B9MPOIC55IFHFZQJU3EQKY7L","6","0","0","1","1","0",,"22744","2017-10-04 19:58:02","21807"
"A321UTTHJSC5PO","caus_thomas_boxes_v2","31Z0PCVWUKGMVJ6O5BS0I22OZO2T7R","8","0","0","0","0","1",,"28020","2017-10-04 19:58:06","21808"
"A1HKRDJKEA5HAG
","caus_thomas_boxes_v2","3DUZQ9U6SMPNR9U5Y9QQEBM5JNVSVT","6","0","0","0","1","1",,"30934","2017-10-04 19:58:18","21809"
"A1OR3EL76SYRI9","caus_thomas_boxes_v2","3TXD01ZLD4I4C93U3IK3KM4GR0J4U9","7","0","0","0","1","0",,"13052","2017-10-04 19:58:25","21810"
"A1RI0AW3N5OCPA","caus_thomas_boxes_v2","3KWTYT08704JP2K089BCYREBE5M5LM","4","0","0","1","1","1",,"40569","2017-10-04 19:58:29","21811"
"AGQPTDG6ZF3T3","caus_thomas_boxes_v2","3GU1KF0O4I2B53G71BVWIUNNTB9BPR","4","0","0","1","0","1",,"26857","2017-10-04 19:58:56","21812"
"A3DUGO5VUHWZE2","caus_thomas_boxes_v2","3SITXWYCNVAGECIYN25DC79QVAIBXF","7","0","0","0","1","1",,"20193","2017-10-04 19:59:23","21813"
"A2BJ2EF793GPGD","caus_thomas_boxes_v2","3J4Q2Z4UTY4OTIFXWF6H5DQI88CWQI","4","0","0","0","0","1",,"30961","2017-10-04 19:59:47","21814"
"AO24F27G2J10J","caus_thomas_boxes_v2","33IZTU6J812FVYZ0YOR82WJQZY3SXW","4","0","0","1","1","1",,"19094","2017-10-04 19:59:58","21815"
"A1VJN1Y35LDNPE
","caus_thomas_boxes_v2","3SBEHTYCWN4F1PMEY8JWH8KCS6VYIG","8","0","0","1","0","0",,"13817","2017-10-04 20:00:01","21816"
"A30Q6PIRTK9071","caus_thomas_boxes_v2","3V0Z7YWSIY1UMAD74UBKNT91LTY2V2","1","0","0","1","0","0",,"11550","2017-10-04 20:00:36","21817"
"A1IZ1IBDLD8HP","caus_thomas_boxes_v2","3EJPLAJKEMHZDV1ISTCQYC39P95Z6F","4","0","0","0","0","1",,"29150","2017-10-04 20:01:42","21818"
"A2NC26KLXJFSSV","caus_thomas_boxes_v2","34S9DKFK73Q7FQX5VOWOMGGTE5QYNX","1","0","0","1","0","1",,"32257","2017-10-04 20:02:02","21819"
"A1SN8UWQYU7DUZ","caus_thomas_boxes_v2","3MD9PLUKKIF7KG7ARAY70NPVKZUZNP","2","0","0","0","0","0",,"18788","2017-10-04 20:02:09","21820"
"A2SX86U1C63UN9","caus_thomas_boxes_v2","3SB5N7Y3O35483KY0C8K44DC1GQG07","4","0","0","0","1","0",,"13378","2017-10-04 20:02:09","21821"
"A1ZHIIH4YJ9TAR","caus_thomas_boxes_v2","3X73LLYYQ1FLTV7GLOS00GLQO9DNHN","8","0","0","1","1","0",,"62552","2017-10-04 20:03:11","21822"
"A2GTSOBE0KHF39","caus_thomas_boxes_v2","34QN5IT0TZSPFOEGHEWWCRWEDXD80J","8","0","0","1","1","0",,"31804","2017-10-04 20:04:49","21823"
"A34Y00EAWB242M","caus_thomas_boxes_v2","34FNN24DCMA3P1RZRO02SZG7NKT5YH","0","0","0","0","0","1",,"27684","2017-10-04 20:05:26","21824"
"A10S5LDYYYB496","caus_thomas_boxes_v2","32AT8R96GLANEU55TJGLIPKM5GQUSA","0","0","0","1","0","1",,"14641","2017-10-04 20:07:05","21825"
"A2SAWJZQM8GTF6","caus_thomas_boxes_v2","3L4D84MILZTPA5GV6Q087949FPCHJH","6","0","0","0","1","0",,"25837","2017-10-04 20:08:09","21826"
"AENJ7GDYBENYX","caus_thomas_boxes_v2","3TK8OJTYM1MQEHED6SMWJ6HUW3TVPL","0","0","0","1","0","1",,"52817","2017-10-04 20:10:17","21827"
"A3R93NB2CPSTVQ","caus_thomas_boxes_v2","3XXU1SWE8MW3YC7VECGA8I293LHA0T","7","0","0","1","0","0",,"19754","2017-10-04 20:10:57","21828"
"A1OICNXB30F29F","caus_thomas_boxes_v2","3Z7EFSHGN9FZOHA41218NRF8DVNXCD","0","0","0","0","1","1",,"20770","2017-10-04 20:11:52","21829"
"A1Q0N5H1DXMK0V","caus_thomas_boxes_v2","3U8YCDAGXPHVLSEC38DWYIHE745Q0K","8","0","0","0","1","0",,"45532","2017-10-04 20:14:49","21830"
"A1LRGL7M9M0A9M","caus_thomas_boxes_v2","3HRMW88U16R40DGKBF6FH9X9X390M8","0","0","0","0","0","1",,"68052","2017-10-04 20:16:08","21831"
"AW0225ONUAPO5","caus_thomas_boxes_v2","3B837J3LDOXVY2DOPPLGDEX2YIRSRB","5","0","0","0","1","1",,"10393","2017-10-04 20:16:37","21832"
"A2ZGAH6NOSU2PO","caus_thomas_boxes_v2","3YW4XOSQKQMNKA6BG011MOXDFHIU1X","1","0","0","0","0","1",,"31337","2017-10-04 20:19:45","21833"
"AY832D29HUURG","caus_thomas_boxes_v2","3J88R45B2GZII6J867NE7REFCF7PXQ","8","0","0","1","1","0",,"11212","2017-10-04 20:19:55","21834"
"AOIRQZ02Y5215","caus_thomas_boxes_v2","3RWE2M8QWHBAIV1KNGLFUOM92TLN0X","7","0","0","0","0","1",,"14045","2017-10-04 20:19:58","21835"
"A1PD5Y9I2C4N13","caus_thomas_boxes_v2","3E337GFOL997TZC51IAIFG9P9AAGNT","7","0","0","0","1","1",,"27768","2017-10-04 20:21:17","21836"
"A3BUK0M3LASLJV","caus_thomas_boxes_v2","3B837J3LDOXVY2DOPPLGDEX2YITRSC","5","0","0","1","1","0",,"17145","2017-10-04 20:21:43","21837"
"AAR5VQ8QIO5PC","caus_thomas_boxes_v2","3PS7W85Z8Z3Q92UHK8QKWYTUUF1T9G","1","0","0","0","1","0",,"27068","2017-10-04 20:21:44","21838"
"A17ELSQUMU0QT6","caus_thomas_boxes_v2","3A1COHJ8NJW0QOKCFM3HIJVVZFPH86","5","0","0","0","1","1",,"6098","2017-10-04 20:21:56","21839"
"A1MV5M3IOQNSM0","caus_thomas_boxes_v2","35H6S234SA116HHTL55A98WEOB856R","0","0","0","1","1","0",,"20350","2017-10-04 20:22:08","21840"
"AOTN819IHXIGK","caus_thomas_boxes_v2","3Z4AIRP3C6EF1E06L5CO6VWH9Z2X1V","3","0","0","1","0","0",,"30809","2017-10-04 20:23:19","21841"
"A2GZKIFAV4AL40","caus_thomas_boxes_v2","33M4IA01QG23UJZNJZR3CMEUDXURXJ","5","0","0","1","0","0",,"32668","2017-10-04 20:23:52","21842"
"A3JHXEH79DJ83L","caus_thomas_boxes_v2","3QBD8R3Z21K9Z4JX7W8ULGCR9F94OC","8","0","0","0","1","0",,"29323","2017-10-04 20:25:09","21843"
"A285V89IZGGO78","caus_thomas_boxes_v2","31LM9EDVOLTHK1269OVLCT1512TNJ6","5","0","0","1","1","1",,"32312","2017-10-04 20:25:38","21844"
"A16KDMZ7CEDHNV","caus_thomas_boxes_v2","34S6N1K2ZVKV5V4V9BCLNOH1JFQHLU","4","0","0","1","1","0",,"28879","2017-10-04 20:27:21","21845"
"A2XPYUZ12Y3EKH","caus_thomas_boxes_v2","3JMSRU9HQIVMHQPNXE6LPUIQIX1EVV","8","0","0","0","1","1",,"48873","2017-10-04 20:29:36","21846"
"AYJ6HFKHK8VHH","caus_thomas_boxes_v2","3A4NIXBJ760HX95608SYFTPX01SMLB","5","0","0","1","0","1",,"24238","2017-10-04 20:31:38","21847"
" A17UVYSZM816NQ","caus_thomas_boxes_v2","3K2755HG5S4STNPX14QX1QXJURDDFE","8","0","0","0","1","1",,"59083","2017-10-04 20:32:18","21848"
"A30571L03D0VDA","caus_thomas_boxes_v2","373ERPL3YO9WD2Q3EPQ6NJTO01ERT8","1","0","0","1","0","0",,"12774","2017-10-04 20:33:00","21849"
"A1QP4NP83WGF17","caus_thomas_boxes_v2","3EKVH9QMEY58STDLD9BQH73ULNB2DM","8","0","0","0","1","1",,"9003","2017-10-04 20:35:42","21850"
"A2L7S6RZOZ6NM9","caus_thomas_boxes_v2","3X73LLYYQ1FLTV7GLOS00GLQOAWHN2","6","0","0","0","1","0",,"2422","2017-10-04 20:35:53","21851"
"A2YTO4EY3MNYAJ","caus_thomas_boxes_v2","3C6FJU71TQUKAGHESP8A0B8NM2YYU6","7","0","0","0","0","1",,"12623","2017-10-04 20:36:24","21852"
"A1CNVT7TGGESCL","caus_thomas_boxes_v2","3GA6AFUKOOPEPRE6358LR2NKJT63H9","2","0","0","1","1","1",,"20754","2017-10-04 20:36:30","21853"
"A2P0T88FJMZXUM","caus_thomas_boxes_v2","3NAPMVF0ZWGSBKCBMW84HFTYZCA720","2","0","0","0","0","0",,"14635","2017-10-04 20:37:20","21854"
"A1YF8WP5IWEWVY","caus_thomas_boxes_v2","3SKEMFQBZ36RSELKL76EVBBNRW2K8M","7","0","0","0","0","0",,"26429","2017-10-04 20:37:24","21855"
"A2WWCLNBO1B1KZ","caus_thomas_boxes_v2","3FUI0JHJPXZZVJ77OKJJN8MA0OP333","5","0","0","1","1","1",,"21615","2017-10-04 20:38:15","21856"
"A2LMD3YPTE10ZZ","caus_thomas_boxes_v2","3CP1TO84PT2DOGYSY3T7JVF286G52K","1","0","0","1","0","0",,"33701","2017-10-04 20:38:30","21857"
"AURN53G3WP6IV","caus_thomas_boxes_v2","3QHK8ZVMIMJLEI199J2P1DE3O2TLBQ","7","0","0","0","0","1",,"27654","2017-10-04 20:41:15","21858"
"AHXNPESTQ52KB","caus_thomas_boxes_v2","39GXDJN2OTF58PFWKBKLXKM47UBV8L","4","0","0","1","1","0",,"13895","2017-10-04 20:41:25","21859"
"A157N4LOO4ZUEA","caus_thomas_boxes_v2","33LKR6A5KEL8KXRMGVBRHSBBW3Q1TS","6","0","0","0","1","1",,"4875","2017-10-04 20:42:27","21860"
"A1XY6Z1C0JGTGC
A1XY6Z1C0JGTGC
A1XY6Z1C0JGTGC","caus_thomas_boxes_v2","3DY4FPOOA1PBQUUSJKQLO1H9XMYVRW","0","0","0","1","0","1",,"38734","2017-10-04 20:42:35","21861"
"AGZA79QVH09QX","caus_thomas_boxes_v2","3NLZY2D53PQ8IO3YS1ZFW292A2YLQ6","6","0","0","1","0","1",,"30034","2017-10-04 20:48:16","21862"
"AVBRJBJONL47I","caus_thomas_boxes_v2","3YW4XOSQKQMNKA6BG011MOXDFH01UM","4","0","0","0","1","1",,"20978","2017-10-04 20:48:31","21863"
"A2SFOTEAHJPU7B","caus_thomas_boxes_v2","32ZKVD547FO4YEBK3DYP5RKMOG8B38","5","0","0","1","1","0",,"14487","2017-10-04 20:49:28","21864"
"A27LCUA35LPVM8
","caus_thomas_boxes_v2","3R5F3LQFV2LP217MSPYKFCP0AAMZOT","0","0","0","0","0","0",,"21078","2017-10-04 20:49:49","21865"
"A1M8B1SD27DY8X","caus_thomas_boxes_v2","3EF8EXOTT1WE6UVH41XNFMO2Y121JQ","8","0","0","0","1","1",,"30413","2017-10-04 20:49:57","21866"
" A1KFK92GEFQ9F5
","caus_thomas_boxes_v2","31Z0PCVWUKGMVJ6O5BS0I22OZPT7TY","6","0","0","0","0","1",,"50509","2017-10-04 20:50:24","21867"
"AE3CVK2OYA242","caus_thomas_boxes_v2","3TPZPLC3M0D628CUMIGQ0BPB5KNP37","7","0","0","0","1","1",,"15966","2017-10-04 20:50:52","21868"
"A2TZIJ0DLY0VNJ","caus_thomas_boxes_v2","3180JW2OT4DDUCW05OZZIC1JAH8J5R","2","0","0","1","0","1",,"21383","2017-10-04 20:51:34","21869"
"AF6HPN1HUYG32","caus_thomas_boxes_v2","3F6HPJW4JD171ZDCU4GG9VSFS3R2W5","4","0","0","1","1","0",,"28356","2017-10-04 20:52:03","21870"
"AJBXUWW66GCNW","caus_thomas_boxes_v2","3WJEQKOXA83351SDAVKAMNLJ8E91AB","4","0","0","1","0","1",,"31509","2017-10-04 20:52:06","21871"
"A2KDZ4HNHX85OR","caus_thomas_boxes_v2","37KGEN7NJ3RD9XHHKGDXDESCAGIPPM","5","0","0","1","1","1",,"2655","2017-10-04 20:58:13","21872"
"A47N8CFWDAXNH","caus_thomas_boxes_v2","3QHK8ZVMIMJLEI199J2P1DE3O21LBY","4","0","0","0","1","0",,"70579","2017-10-04 20:58:32","21873"
"A1S7WGRS6BVBGW","caus_thomas_boxes_v2","3QAPZX2QN4EET9CR1XNV20JBRYF024","0","0","0","0","0","0",,"23596","2017-10-04 20:59:10","21874"
"ALW83OCVEWDHC","caus_thomas_boxes_v2","32SVAV9L3FAZF46SXZYTAG0G6YS3AA","1","0","0","1","1","1",,"16379","2017-10-04 20:59:14","21875"
"A1ERMRNNR0CZ2Y","caus_thomas_boxes_v2","3VHP9MDGRNLIOVJJ18VMHKF19R4FCJ","8","0","0","0","0","0",,"40107","2017-10-04 21:00:18","21876"
"A3KMS2BMQDLZU7","caus_thomas_boxes_v2","3OVHNO1VE62YY4GX2GK44ID16WODZJ","1","0","0","0","1","1",,"17885","2017-10-04 21:01:33","21877"
"A2B153AHPWHLH1","caus_thomas_boxes_v2","3WQQ9FUS6AVQZBHQFUTLW8SX4258B2","4","0","0","1","1","1",,"40028","2017-10-04 21:01:34","21878"
"A1U8MHDOHCOZ8V","caus_thomas_boxes_v2","39DD6S19JPC3QAUXYBVOA0VM68PZEY","5","0","0","1","1","0",,"46939","2017-10-04 21:02:49","21879"
"A2D2WC1Z369KXS","caus_thomas_boxes_v2","3OB0CAO74HQF5UBUSQ1BHWJXSUEHY6","8","0","0","0","1","1",,"38881","2017-10-04 21:03:45","21880"
"A3HB7TDTJ1KICF
","caus_thomas_boxes_v2","3EFE17QCRC6I98ZLTK9MZAVWB9IHSS","1","0","0","1","1","0",,"40465","2017-10-04 21:04:05","21881"
"A3NV8GEG3IEEWG","caus_thomas_boxes_v2","3K772S5NP8CHZPU3SPPHATRHAI9HER","4","0","0","1","0","1",,"40550","2017-10-04 21:04:08","21882"
"A2DQO6MHBPS0M6","caus_thomas_boxes_v2","3HRMW88U16R40DGKBF6FH9X9X3Z0MY","5","0","0","1","1","0",,"23110","2017-10-04 21:04:24","21883"
"A3M5P25P8XALD9","caus_thomas_boxes_v2","35GMH2SV3EIRR6GQW2K7U2OIM4OOEN","1","0","0","1","0","0",,"32119","2017-10-04 21:07:36","21884"
"AJ7CC0LFQZW2C","caus_thomas_boxes_v2","3HL8HNGX452GQXCGPOLVFUET36XF9Y","7","0","0","0","1","1",,"14844","2017-10-04 21:08:39","21885"
"A399GYOD60WD7M","caus_thomas_boxes_v2","378XPAWRUCEE57OBI25GEM25PGTIAT","6","0","0","0","1","0",,"18508","2017-10-04 21:09:38","21886"
"A1V6L58XUX4K71","caus_thomas_boxes_v2","3LWJHTCVCCNMIWT26QWH1P4ID6NFQ6","1","0","0","0","0","1",,"27883","2017-10-04 21:10:36","21887"
"A3U05VDP63V501","caus_thomas_boxes_v2","3W2LOLRXLBGXAJ0GKGCEMS6SHO5RKK","7","0","0","1","1","1",,"34860","2017-10-04 21:10:39","21888"
"A37N5X89RE99B0","caus_thomas_boxes_v2","3FQ5JJ512LPCVL8OR9VXD81IGRVKN4","5","0","0","0","0","0",,"16554","2017-10-04 21:11:51","21889"
"A37GUFW4K6A1C8","caus_thomas_boxes_v2","32VNZTT0A75CWHBDZOPYFBHWK2GR4V","6","0","0","0","0","0",,"17424","2017-10-04 21:12:31","21890"
"A201TVJEFPWTT
","caus_thomas_boxes_v2","3F6HPJW4JD171ZDCU4GG9VSFS312WF","5","0","0","0","0","0",,"20339","2017-10-04 21:12:57","21891"
"A28ZPY6D5AS7GZ","caus_thomas_boxes_v2","379J5II41OHJLLDTJA4F2LKORZJELW","6","0","0","1","0","1",,"11453","2017-10-04 21:13:24","21892"
"A2YE3A7UQCOTKU","caus_thomas_boxes_v2","32AT8R96GLANEU55TJGLIPKM5HNSU7","4","0","0","0","0","1",,"33612","2017-10-04 21:14:24","21893"
" A2CLSASUR08Z0O","caus_thomas_boxes_v2","323Q6SJS8IH953UZN09NSBCHMJTHFE","2","0","0","0","0","0",,"15876","2017-10-04 21:14:29","21894"
"A3U2UNSYDPS933","caus_thomas_boxes_v2","36NEMU28XFEX83H54MZ0O46DY8EMWM","7","0","0","0","0","0",,"4044","2017-10-04 21:14:38","21895"
"A3NQ4ZG8PEN9X4","caus_thomas_boxes_v2","3XC1O3LBOSNLA4VQ95TA17KPU9ATL5","1","0","0","1","0","1",,"22263","2017-10-04 21:15:10","21896"
"A32PF8ZVZLP7CV","caus_thomas_boxes_v2","3WMOAN2SRBYQBW20QD94FHCZWPRVNQ","5","0","0","1","1","0",,"5056","2017-10-04 21:17:05","21897"
"A2C7487XARMX8P","caus_thomas_boxes_v2","3SUWZRL0MYE120AMW6YDD22R14Y6EK","1","0","0","1","0","1",,"30906","2017-10-04 21:17:10","21898"
"A2LFM01A16YPKG","caus_thomas_boxes_v2","3GLB5JMZFXWY7NLSCOWFJBXVV74GD9","2","0","0","1","0","0",,"13557","2017-10-04 21:22:10","21899"
"A362C46X7UDVNC","caus_thomas_boxes_v2","3NPFYT4IZC5C5TQ93OXRDI0NBOFGX8","4","0","0","0","0","1",,"41448","2017-10-04 21:22:46","21900"
"A3TTG9ALOZM8RC","caus_thomas_boxes_v2","3SKRO2GZ71S9HE1ZMMXZG1OFDQC1KZ","1","0","0","1","1","0",,"19797","2017-10-04 21:23:10","21901"
"AZJEDXAMBQDK0","caus_thomas_boxes_v2","3IO1LGZLK9YKTZ0VJ3CDLS65Q1M869","7","0","0","0","1","1",,"15122","2017-10-04 21:23:21","21902"
"A1BLQ80S9MIZ0Z
","caus_thomas_boxes_v2","3PQMUDRV7R7TBP79UQXTVKQO2P5II6","8","0","0","0","1","0",,"16270","2017-10-04 21:24:01","21903"
"A3CCXD63N92HZ5","caus_thomas_boxes_v2","3KMS4QQVK2R07TV7TLCK53S9E13KFT","1","0","0","1","0","1",,"19624","2017-10-04 21:28:05","21904"
"A1NT8BT94ME6F5","caus_thomas_boxes_v2","3X1FV8S5JXSK14LE39W9PX32VDOVG1","4","0","0","0","0","0",,"15168","2017-10-04 21:29:30","21905"
"A397157QX8JVSQ","caus_thomas_boxes_v2","3PPTZCWALQLSNDK272QO4HK0PCQQZG","4","0","0","1","0","1",,"25574","2017-10-04 21:31:02","21906"
"A2LI51CANHJ00M","caus_thomas_boxes_v2","3CN4LGXD5XPLTINZDJHSN7ATNQ54YM","3","0","0","1","1","1",,"6546","2017-10-04 21:31:29","21907"
"A3KF9DXMEZBAPG","caus_thomas_boxes_v2","3URFVVM165JKF6RJOBATEIHPSXXZUV","4","0","0","1","1","1",,"10317","2017-10-04 21:33:03","21908"
"A29SLKFAWM24K","caus_thomas_boxes_v2","3EA3QWIZ4IWJK3NKO2WX9RSXD6OITQ","0","0","0","1","1","1",,"65152","2017-10-04 21:34:09","21909"
"A25VHX1PUAHR4T","caus_thomas_boxes_v2","3AAJC4I4FGTB1QGPCC6F7G8EBH0JZK","4","0","0","0","0","1",,"32035","2017-10-04 21:35:10","21910"
"AI7FHEGINMC0L","caus_thomas_boxes_v2","39O5D9O87TTN8J3QHDUKGBQ462SC32","6","0","0","0","1","0",,"30515","2017-10-04 21:35:44","21911"
"A1ZT30BGR3266K","caus_thomas_boxes_v2","35GCEFQ6I5P0GCE09RESR9RPFKEZ3O","6","0","0","0","1","0",,"34339","2017-10-04 21:36:12","21912"
"A182SB7NKMHUM9","caus_thomas_boxes_v2","36DSNE9QZ5ZZ2M2IA3VYRI1ARD0JOL","0","0","0","1","1","1",,"17867","2017-10-04 21:40:22","21913"
" A3BRZCP49UCF6R","caus_thomas_boxes_v2","3F6HPJW4JD171ZDCU4GG9VSFS4E2WU","0","0","0","1","1","1",,"17365","2017-10-04 21:40:48","21914"
"A30XJL6AR4OBO3
A30XJL6AR4OBO3
A30XJL6AR4OBO3
A30XJL6AR4OBO3","caus_thomas_boxes_v2","3TE22NPXPBD5VB9FOCTL7I6MSPA445","0","0","0","0","0","1",,"33501","2017-10-04 21:41:50","21915"
"A14G34983XKSCS","caus_thomas_boxes_v2","39ZSFO5CA8XUFRMF6P77QOTZ9ZPJUZ","6","0","0","1","1","0",,"24724","2017-10-04 21:43:31","21916"
"AYDJT8GR4X6GB","caus_thomas_boxes_v2","3YOH7BII098P3QHXT0HONPVV2VVVKW","4","0","0","0","0","0",,"29938","2017-10-04 21:44:44","21917"
"A2BJULD0NVFD30","caus_thomas_boxes_v2","358010RM5EUVNQG4SJWDDJ3XY3XVX6","8","0","0","1","0","1",,"10976","2017-10-04 21:45:38","21918"
"A1OZPLHNIU1519","caus_thomas_boxes_v2","3M81GAB8A0KW5FHM1OALIZDXY9BBQ2","6","0","0","1","1","1",,"28951","2017-10-04 21:46:20","21919"
"A3K6QLTTQP9IQ8","caus_thomas_boxes_v2","3KAKFY4PGU3ELMPQ9NQ6REOZJ7H3I0","2","0","0","1","0","1",,"22970","2017-10-04 21:46:38","21920"
"A1HNIWB0V84UN8","caus_thomas_boxes_v2","3HFNH7HEMHFSWWPXHA2ZJA4UEM3QGY","4","0","0","0","0","1",,"11721","2017-10-04 21:46:52","21921"
"A1TCRUY62WUUDM
 A1TCRUY62WUUDM
A1TCRUY62WUUDM","caus_thomas_boxes_v2","3OHYZ19UGC6O1TZEGXILYJYR1Q7OAB","5","0","0","0","0","0",,"43169","2017-10-04 21:48:25","21922"
"A21BXRUD15TQL8","caus_thomas_boxes_v2","3OONKJ5DKCKTK346MBIHTUIXJ8VBOW","3","0","0","0","0","0",,"14779","2017-10-04 21:50:43","21923"
"A15HCM2AMX95Z9","caus_thomas_boxes_v2","337RC3OW0530NWZFE0TP2P8ARV5LVU","4","0","0","1","1","1",,"21544","2017-10-04 21:50:44","21924"
"A3DTGOUNCVPLO8","caus_thomas_boxes_v2","34T446B1C0FRRR4TYQC1EDSX3QGC0F","4","0","0","1","1","1",,"26100","2017-10-04 21:54:27","21925"
"A120PN22KW0VPY","caus_thomas_boxes_v2","3VD82FOHKQPCU8WC0BEC4EOF1TWCO5","5","0","0","0","1","1",,"25148","2017-10-04 21:55:30","21926"
"A29FUGECANV8BT","caus_thomas_boxes_v2","39O5D9O87TTN8J3QHDUKGBQ46213C2","4","0","0","1","0","0",,"28749","2017-10-04 21:57:22","21927"
"A3MJSYSWX0Q4WQ","caus_thomas_boxes_v2","36AHBNMV1RDYTE6S6UILQB4Z038YD3","5","0","0","1","0","0",,"49259","2017-10-04 21:58:57","21928"
"A1JR1MJO1PQUYG","caus_thomas_boxes_v2","3X66WABAJWJ0PVJVJZQ362BJ4UUG3Q","4","0","0","0","0","1",,"14753","2017-10-04 21:59:56","21929"
"A2UEDZOQ2060Y3","caus_thomas_boxes_v2","3UNH76FOCS61X8C5JNHO91RT9H0MY9","6","0","0","1","0","1",,"19637","2017-10-04 22:00:06","21930"
"AAXVPAK0I9PT6","caus_thomas_boxes_v2","3HMIGG0U4L7MCJA1PM754JQYPCCY8Y","3","0","0","0","0","1",,"13189","2017-10-04 22:00:41","21931"
"A3TRHAG4OHCNHD","caus_thomas_boxes_v2","33OOO72IVHMS701KWS0BYOU201GCTU","4","0","0","0","1","0",,"19581","2017-10-04 22:02:29","21932"
" A2O07XCE62LE03","caus_thomas_boxes_v2","386PBUZZXFYRW1ZLXBF6Z1XGW83JLC","2","0","0","0","0","0",,"34149","2017-10-04 22:05:08","21933"
"A3LSJIDK2AO2MB","caus_thomas_boxes_v2","3UWN2HHPUY6AJ4LWWI4Z4USSXMHNSZ","4","0","0","0","0","1",,"21868","2017-10-04 22:07:06","21934"
"A2F0X4LN9N4O4C","caus_thomas_boxes_v2","3WYP994K17SZ85RDW7A7K5U7JHO6YM","5","0","0","1","0","1",,"18337","2017-10-04 22:07:32","21935"
"AMPBSSN039C35","caus_thomas_boxes_v2","3LWJHTCVCCNMIWT26QWH1P4ID7AQF6","8","0","0","1","0","1",,"36832","2017-10-04 22:07:50","21936"
"AGADY9XG1OOWT","caus_thomas_boxes_v2","3I33IC7ZWF3AUMA9TZKOR6VO0LKA20","4","0","0","0","0","0",,"14445","2017-10-04 22:09:57","21937"
"ADWDNBND4BW94","caus_thomas_boxes_v2","3A0EX8ZRN8P5EH88SYRFVLGZXINBY0","4","0","0","0","1","1",,"6091","2017-10-04 22:09:59","21938"
"A28PG3NQXF9VAA","caus_thomas_boxes_v2","3TPWUS5F892KZH5ERX5ML8114V1CWN","0","0","0","0","0","0",,"20132","2017-10-04 22:12:10","21939"
"A2ZDXFFGSPHGBE","caus_thomas_boxes_v2","379J5II41OHJLLDTJA4F2LKOR0ALEW","4","0","0","0","0","1",,"6647","2017-10-04 22:12:52","21940"
"AFHYKBNXB3FQ2","caus_thomas_boxes_v2","3DI28L7YXAF6VE9PQ0MWI6BATU61E7","6","0","0","0","1","1",,"16972","2017-10-04 22:14:09","21941"
"A23JJTPNIFMU2U","caus_thomas_boxes_v2","30ZX6P7VF8WLVFDDN5X1K5Y7Q8G2JA","4","0","0","1","0","1",,"4021","2017-10-04 22:14:13","21942"
"A3UQ9R1VDVVQKR","caus_thomas_boxes_v2","3TR2532VIPV9DGWEA794AIFJ6DCJ62","4","0","0","1","1","1",,"43791","2017-10-04 22:15:00","21943"
"A3BHWO6HBWCB6P","caus_thomas_boxes_v2","39GHHAVOMFSVYTS0RJGPDKV5AMC4J8","0","0","0","1","0","1",,"20838","2017-10-04 22:15:17","21944"
"AP57STOQJSYCO","caus_thomas_boxes_v2","3LRKMWOKB5IBVUIH5R0N8ZMX96T2ZV","7","0","0","0","0","1",,"21641","2017-10-04 22:17:00","21945"
"ADLCZ4ZPZM01Q","caus_thomas_boxes_v2","3U4J9857OECMZXC75P1FI8W2TJTB7E","2","0","0","1","0","1",,"21654","2017-10-04 22:17:31","21946"
"A3UCMC3O58E3DM
","caus_thomas_boxes_v2","3MH9DQ757WDKOPWEYJM4TB1JH7JUGH","4","0","0","1","0","0",,"3326","2017-10-04 22:17:52","21947"
"A19F75QCU199K8","caus_thomas_boxes_v2","3RXPCZQMQPC4FS5GWVCKI9WM6AJ1GM","7","0","0","0","1","1",,"16175","2017-10-04 22:17:56","21948"
"A30Z1H6111L1VX","caus_thomas_boxes_v2","35BLDD71I6YKSLGJT1KYA4J864MVZW","1","0","0","1","0","0",,"30444","2017-10-04 22:18:30","21949"
"A3TF02PMRXPWW7","caus_thomas_boxes_v2","373ERPL3YO9WD2Q3EPQ6NJTO02NRTJ","2","0","0","1","0","0",,"25045","2017-10-04 22:18:50","21950"
"A31F5YQGIQU8NU
","caus_thomas_boxes_v2","3WETL7AQWT929YUB237C25KUELM351","4","0","0","1","0","1",,"25811","2017-10-04 22:20:51","21951"
"AFYE3UJTTZRHL","caus_thomas_boxes_v2","3IOEN3P9S7K2IZGAKI3Y6IJXCWJ61S","2","0","0","0","0","0",,"73608","2017-10-04 22:22:02","21952"
"A1H6AZSS5DQ0KD","caus_thomas_boxes_v2","3ON104KXQKXH4DSZYIZ42APDCIN4W5","0","0","0","1","0","0",,"12251","2017-10-04 22:22:21","21953"
"A1ER9BGSV82DKW
A1ER9BGSV82DKW
A1ER9BGSV82DKW
