"subject","version","assignmentId","rating","question_ind","trial_ind","focal_high","alt_high","rt","stamp","id"
"A1wxpolds1y9r4","caus_thomas_all_v1","3ZAK8W07I4FNDLLTKHX18JE36Z4U02","2","0","0","9","3","2153","2017-09-14 14:19:48","3227"
"A1wxpolds1y9r4","caus_thomas_all_v1","3ZAK8W07I4FNDLLTKHX18JE36Z4U02","5","1","1","6","7","2057","2017-09-14 14:19:51","3228"
"A1wxpolds1y9r4","caus_thomas_all_v1","3ZAK8W07I4FNDLLTKHX18JE36Z4U02","3","2","2","1","8","1930","2017-09-14 14:19:54","3229"
"A1wxpolds1y9r4","caus_thomas_all_v1","3ZAK8W07I4FNDLLTKHX18JE36Z4U02","6","3","3","4","4","1561","2017-09-14 14:19:57","3230"
"A1wxpolds1y9r4","caus_thomas_all_v1","3ZAK8W07I4FNDLLTKHX18JE36Z4U02","1","4","4","5","6","1721","2017-09-14 14:19:59","3231"
"A1FQE3NEOHSKOX","caus_thomas_all_v1","3H7XDTSHKCSXGTLJTJ15BZMGYW4WG6","2","0","0","2","4","34208","2017-09-14 14:20:15","3232"
"A2ZV96GRXVSXK4","caus_thomas_all_v1","386CSBG1OZNQZ30R5XTD7JR5GHL6QB","4","0","0","5","9","19088","2017-09-14 14:20:17","3233"
"A2ZV96GRXVSXK4","caus_thomas_all_v1","386CSBG1OZNQZ30R5XTD7JR5GHL6QB","0","1","1","8","1","8345","2017-09-14 14:20:26","3234"
"A3Q3YVQONIKZPY","caus_thomas_all_v1","3LOTDFNYA70R2TPOIZVNTEM4XH4WF7","8","0","0","4","4","34892","2017-09-14 14:20:27","3235"
"AQ4PZ6W8NIDH3","caus_thomas_all_v1","3KGTPGBS6XMU9VO7Z41FR77I3XOU2M","8","0","0","1","5","42605","2017-09-14 14:20:27","3236"
"A1FQE3NEOHSKOX","caus_thomas_all_v1","3H7XDTSHKCSXGTLJTJ15BZMGYW4WG6","1","1","1","1","9","11810","2017-09-14 14:20:27","3237"
"A28WSBB0DSV47X","caus_thomas_all_v1","3V5Q80FXIXSAA1BOKK5E4YHIQK523N","6","0","0","1","10","9218","2017-09-14 14:20:30","3238"
"A1NZ8CY1G3KUX9","caus_thomas_all_v1","308Q0PEVB8E00OE6QWRGIRRLF8C9IM","1","0","0","3","8","36540","2017-09-14 14:20:33","3239"
"AFZKP8TAXAUCR","caus_thomas_all_v1","3U84XHCDICELY8X495JB1EJVPTZZ4C","2","0","0","9","6","42642","2017-09-14 14:20:34","3240"
"A2ZV96GRXVSXK4","caus_thomas_all_v1","386CSBG1OZNQZ30R5XTD7JR5GHL6QB","8","2","2","10","7","7502","2017-09-14 14:20:35","3241"
"A28WSBB0DSV47X","caus_thomas_all_v1","3V5Q80FXIXSAA1BOKK5E4YHIQK523N","5","1","1","4","6","3033","2017-09-14 14:20:35","3242"
"A1FQE3NEOHSKOX","caus_thomas_all_v1","3H7XDTSHKCSXGTLJTJ15BZMGYW4WG6","3","2","2","5","8","7450","2017-09-14 14:20:36","3243"
"A1JFQYGO8M6EWX","caus_thomas_all_v1","31T4R4OBOSH5924DJPXATS2K7D4C7B","4","0","0","10","10","54760","2017-09-14 14:20:37","3244"
"A28WSBB0DSV47X","caus_thomas_all_v1","3V5Q80FXIXSAA1BOKK5E4YHIQK523N","5","2","2","2","1","4115","2017-09-14 14:20:39","3245"
"A24DSECWUBZC0Z","caus_thomas_all_v1","3ERET4BTVMAR6J4UQZCSV76Y7C19KX","4","0","0","4","4","42880","2017-09-14 14:20:39","3246"
"A2ZV96GRXVSXK4","caus_thomas_all_v1","386CSBG1OZNQZ30R5XTD7JR5GHL6QB","3","3","3","4","2","3558","2017-09-14 14:20:39","3247"
"A1FQE3NEOHSKOX","caus_thomas_all_v1","3H7XDTSHKCSXGTLJTJ15BZMGYW4WG6","2","3","3","4","3","5589","2017-09-14 14:20:43","3248"
"A1NZ8CY1G3KUX9","caus_thomas_all_v1","308Q0PEVB8E00OE6QWRGIRRLF8C9IM","1","1","1","9","7","9305","2017-09-14 14:20:44","3249"
"A2ZV96GRXVSXK4","caus_thomas_all_v1","386CSBG1OZNQZ30R5XTD7JR5GHL6QB","6","4","4","9","5","3792","2017-09-14 14:20:44","3250"
"AQ4PZ6W8NIDH3","caus_thomas_all_v1","3KGTPGBS6XMU9VO7Z41FR77I3XOU2M","8","1","1","2","7","16772","2017-09-14 14:20:44","3251"
"AFZKP8TAXAUCR","caus_thomas_all_v1","3U84XHCDICELY8X495JB1EJVPTZZ4C","4","1","1","8","2","9584","2017-09-14 14:20:45","3252"
"A28WSBB0DSV47X","caus_thomas_all_v1","3V5Q80FXIXSAA1BOKK5E4YHIQK523N","6","3","3","3","2","4387","2017-09-14 14:20:45","3253"
"A28WSBB0DSV47X","caus_thomas_all_v1","3V5Q80FXIXSAA1BOKK5E4YHIQK523N","7","4","4","9","3","4810","2017-09-14 14:20:50","3254"
"A1NZ8CY1G3KUX9","caus_thomas_all_v1","308Q0PEVB8E00OE6QWRGIRRLF8C9IM","1","2","2","10","6","6457","2017-09-14 14:20:51","3255"
"A1A3B77BG6NV8Y","caus_thomas_all_v1","34BBWHLWHACBCKREJ718WBZWD9WWIY","0","0","0","1","4","36245","2017-09-14 14:20:51","3256"
"A1MADOUB1BA0A5","caus_thomas_all_v1","3LKC68YZ3A4L862HH2EDG8VIPIVWOT","0","0","0","2","9","26562","2017-09-14 14:20:53","3257"
"AEXF5EUX32U0M","caus_thomas_all_v1","3VHP9MDGRNLIOVJJ18VMHKF151NCFF","8","0","0","8","10","24115","2017-09-14 14:20:55","3258"
"A1FQE3NEOHSKOX","caus_thomas_all_v1","3H7XDTSHKCSXGTLJTJ15BZMGYW4WG6","2","4","4","7","1","12239","2017-09-14 14:20:56","3259"
"A9O273N0X06JS","caus_thomas_all_v1","3Q8GYXHFEP3QMYQUVWIDV8OOG79C5W","0","0","0","1","1","43366","2017-09-14 14:20:57","3260"
"A24DSECWUBZC0Z","caus_thomas_all_v1","3ERET4BTVMAR6J4UQZCSV76Y7C19KX","6","1","1","1","7","18251","2017-09-14 14:20:58","3261"
"A2H6RIWM50KWA4","caus_thomas_all_v1","3SEPORI8WN000XDLI6T2EH5VH3VZAN","0","0","0","5","7","39725","2017-09-14 14:20:58","3262"
"AFZKP8TAXAUCR","caus_thomas_all_v1","3U84XHCDICELY8X495JB1EJVPTZZ4C","0","2","2","3","1","12896","2017-09-14 14:20:59","3263"
"A3Q3YVQONIKZPY","caus_thomas_all_v1","3LOTDFNYA70R2TPOIZVNTEM4XH4WF7","8","1","1","2","3","33290","2017-09-14 14:21:01","3264"
"A1NZ8CY1G3KUX9","caus_thomas_all_v1","308Q0PEVB8E00OE6QWRGIRRLF8C9IM","3","3","3","2","10","10152","2017-09-14 14:21:02","3265"
"AFZKP8TAXAUCR","caus_thomas_all_v1","3U84XHCDICELY8X495JB1EJVPTZZ4C","0","3","3","5","4","3508","2017-09-14 14:21:03","3266"
"A1A3B77BG6NV8Y","caus_thomas_all_v1","34BBWHLWHACBCKREJ718WBZWD9WWIY","0","1","1","9","5","11484","2017-09-14 14:21:04","3267"
"A1MADOUB1BA0A5","caus_thomas_all_v1","3LKC68YZ3A4L862HH2EDG8VIPIVWOT","0","1","1","1","6","10558","2017-09-14 14:21:04","3268"
"AEXF5EUX32U0M","caus_thomas_all_v1","3VHP9MDGRNLIOVJJ18VMHKF151NCFF","6","1","1","4","8","8495","2017-09-14 14:21:05","3269"
"A1JFQYGO8M6EWX","caus_thomas_all_v1","31T4R4OBOSH5924DJPXATS2K7D4C7B","5","1","1","7","9","28786","2017-09-14 14:21:07","3270"
"AFZKP8TAXAUCR","caus_thomas_all_v1","3U84XHCDICELY8X495JB1EJVPTZZ4C","0","4","4","4","10","4570","2017-09-14 14:21:09","3271"
"A7ARLVESOUAOL","caus_thomas_all_v1","3TXWC2NHNZRPU2H2V8LUMTX8O6E9SE","2","0","0","9","7","14279","2017-09-14 14:21:09","3272"
"A1NZ8CY1G3KUX9","caus_thomas_all_v1","308Q0PEVB8E00OE6QWRGIRRLF8C9IM","2","4","4","7","9","6552","2017-09-14 14:21:10","3273"
"A24DSECWUBZC0Z","caus_thomas_all_v1","3ERET4BTVMAR6J4UQZCSV76Y7C19KX","8","2","2","5","10","10872","2017-09-14 14:21:10","3274"
"A1A3B77BG6NV8Y","caus_thomas_all_v1","34BBWHLWHACBCKREJ718WBZWD9WWIY","0","2","2","4","2","6708","2017-09-14 14:21:12","3275"
"A1NSWJKFJIZ06J","caus_thomas_all_v1","3D4CH1LGEAUM4X8B08RDXFE50VK9GU","3","0","0","5","4","22126","2017-09-14 14:21:12","3276"
"A3ACR8IG31Q7K6","caus_thomas_all_v1","3QUO65DNQUP8G2DCM2ZCYKAL42KUOS","4","0","0","8","9","22849","2017-09-14 14:21:14","3277"
"A12CEB35YXRM8X","caus_thomas_all_v1","3YGXWBAF70I8QFMUHRZ3QGIAGBE4CJ","0","0","0","9","5","20693","2017-09-14 14:21:14","3278"
"AEXF5EUX32U0M","caus_thomas_all_v1","3VHP9MDGRNLIOVJJ18VMHKF151NCFF","3","2","2","9","7","9057","2017-09-14 14:21:15","3279"
"A1MADOUB1BA0A5","caus_thomas_all_v1","3LKC68YZ3A4L862HH2EDG8VIPIVWOT","8","2","2","5","10","10763","2017-09-14 14:21:16","3280"
"A1JCKICNOC7DAB
","caus_thomas_all_v1","3483FV8BEEK97KY63M3CB1T20B726T","0","0","0","9","4","42160","2017-09-14 14:21:17","3281"
"A1JFQYGO8M6EWX","caus_thomas_all_v1","31T4R4OBOSH5924DJPXATS2K7D4C7B","3","2","2","5","4","9843","2017-09-14 14:21:17","3282"
"A7ARLVESOUAOL","caus_thomas_all_v1","3TXWC2NHNZRPU2H2V8LUMTX8O6E9SE","6","1","1","3","8","8276","2017-09-14 14:21:18","3283"
"A1A3B77BG6NV8Y","caus_thomas_all_v1","34BBWHLWHACBCKREJ718WBZWD9WWIY","0","3","3","10","1","7204","2017-09-14 14:21:20","3284"
"AEXF5EUX32U0M","caus_thomas_all_v1","3VHP9MDGRNLIOVJJ18VMHKF151NCFF","2","3","3","5","6","5060","2017-09-14 14:21:21","3285"
"A9O273N0X06JS","caus_thomas_all_v1","3Q8GYXHFEP3QMYQUVWIDV8OOG79C5W","1","1","1","7","9","23089","2017-09-14 14:21:21","3286"
"A1MADOUB1BA0A5","caus_thomas_all_v1","3LKC68YZ3A4L862HH2EDG8VIPIVWOT","0","3","3","8","7","5168","2017-09-14 14:21:22","3287"
"A3ACR8IG31Q7K6","caus_thomas_all_v1","3QUO65DNQUP8G2DCM2ZCYKAL42KUOS","6","1","1","2","5","8486","2017-09-14 14:21:23","3288"
"A2H6RIWM50KWA4","caus_thomas_all_v1","3SEPORI8WN000XDLI6T2EH5VH3VZAN","0","1","1","1","3","24107","2017-09-14 14:21:23","3289"
"A12CEB35YXRM8X","caus_thomas_all_v1","3YGXWBAF70I8QFMUHRZ3QGIAGBE4CJ","0","1","1","8","6","9957","2017-09-14 14:21:25","3290"
"A7ARLVESOUAOL","caus_thomas_all_v1","3TXWC2NHNZRPU2H2V8LUMTX8O6E9SE","0","2","2","10","9","7137","2017-09-14 14:21:27","3291"
"A7ULVYZ4JGW8L","caus_thomas_all_v1","30IQTZXKAK7FUPFOPM8OSQD70HLX0X","2","0","0","1","9","36825","2017-09-14 14:21:27","3292"
"AU8YVB738G6C","caus_thomas_all_v1","3IUZPWIU1O82IFH2JAMK9RE95DLWK9","0","0","0","7","2","68311","2017-09-14 14:21:27","3293"
"A1NSWJKFJIZ06J","caus_thomas_all_v1","3D4CH1LGEAUM4X8B08RDXFE50VK9GU","5","1","1","2","3","15979","2017-09-14 14:21:29","3294"
"A1MADOUB1BA0A5","caus_thomas_all_v1","3LKC68YZ3A4L862HH2EDG8VIPIVWOT","0","4","4","10","1","6046","2017-09-14 14:21:29","3295"
"A24DSECWUBZC0Z","caus_thomas_all_v1","3ERET4BTVMAR6J4UQZCSV76Y7C19KX","1","3","3","9","2","18430","2017-09-14 14:21:30","3296"
"A1A3B77BG6NV8Y","caus_thomas_all_v1","34BBWHLWHACBCKREJ718WBZWD9WWIY","0","4","4","6","7","8824","2017-09-14 14:21:30","3297"
"AEXF5EUX32U0M","caus_thomas_all_v1","3VHP9MDGRNLIOVJJ18VMHKF151NCFF","4","4","4","3","5","8092","2017-09-14 14:21:30","3298"
"A3ACR8IG31Q7K6","caus_thomas_all_v1","3QUO65DNQUP8G2DCM2ZCYKAL42KUOS","4","2","2","6","7","6808","2017-09-14 14:21:31","3299"
"A3HTLXAPOBCVVO","caus_thomas_all_v1","3WYP994K17SZ85RDW7A7K5U7FQ26YE","0","0","0","10","4","35327","2017-09-14 14:21:32","3300"
"A12CEB35YXRM8X","caus_thomas_all_v1","3YGXWBAF70I8QFMUHRZ3QGIAGBE4CJ","4","2","2","3","3","7911","2017-09-14 14:21:34","3301"
"A7ARLVESOUAOL","caus_thomas_all_v1","3TXWC2NHNZRPU2H2V8LUMTX8O6E9SE","2","3","3","8","5","7173","2017-09-14 14:21:35","3302"
"A1JFQYGO8M6EWX","caus_thomas_all_v1","31T4R4OBOSH5924DJPXATS2K7D4C7B","5","3","3","4","6","16460","2017-09-14 14:21:35","3303"
"A9O273N0X06JS","caus_thomas_all_v1","3Q8GYXHFEP3QMYQUVWIDV8OOG79C5W","0","2","2","2","3","12978","2017-09-14 14:21:35","3304"
"A24DSECWUBZC0Z","caus_thomas_all_v1","3ERET4BTVMAR6J4UQZCSV76Y7C19KX","0","4","4","10","8","5917","2017-09-14 14:21:37","3305"
"A3ACR8IG31Q7K6","caus_thomas_all_v1","3QUO65DNQUP8G2DCM2ZCYKAL42KUOS","2","3","3","9","4","7063","2017-09-14 14:21:39","3306"
"A12CEB35YXRM8X","caus_thomas_all_v1","3YGXWBAF70I8QFMUHRZ3QGIAGBE4CJ","3","3","3","4","2","3944","2017-09-14 14:21:39","3307"
"A1NSWJKFJIZ06J","caus_thomas_all_v1","3D4CH1LGEAUM4X8B08RDXFE50VK9GU","3","2","2","10","9","10727","2017-09-14 14:21:41","3308"
"A7ARLVESOUAOL","caus_thomas_all_v1","3TXWC2NHNZRPU2H2V8LUMTX8O6E9SE","4","4","4","1","1","6868","2017-09-14 14:21:43","3309"
"A1JFQYGO8M6EWX","caus_thomas_all_v1","31T4R4OBOSH5924DJPXATS2K7D4C7B","2","4","4","8","8","7668","2017-09-14 14:21:44","3310"
"A3ACR8IG31Q7K6","caus_thomas_all_v1","3QUO65DNQUP8G2DCM2ZCYKAL42KUOS","4","4","4","7","3","4157","2017-09-14 14:21:44","3311"
"A1JCKICNOC7DAB
","caus_thomas_all_v1","3483FV8BEEK97KY63M3CB1T20B726T","2","1","1","3","6","26353","2017-09-14 14:21:44","3312"
"A7ULVYZ4JGW8L","caus_thomas_all_v1","30IQTZXKAK7FUPFOPM8OSQD70HLX0X","1","1","1","8","1","17107","2017-09-14 14:21:45","3313"
"AQ4PZ6W8NIDH3","caus_thomas_all_v1","3KGTPGBS6XMU9VO7Z41FR77I3XOU2M","8","2","2","9","1","60363","2017-09-14 14:21:46","3314"
"A12CEB35YXRM8X","caus_thomas_all_v1","3YGXWBAF70I8QFMUHRZ3QGIAGBE4CJ","7","4","4","1","4","6970","2017-09-14 14:21:47","3315"
"A1NSWJKFJIZ06J","caus_thomas_all_v1","3D4CH1LGEAUM4X8B08RDXFE50VK9GU","3","3","3","7","7","9387","2017-09-14 14:21:51","3316"
"A9O273N0X06JS","caus_thomas_all_v1","3Q8GYXHFEP3QMYQUVWIDV8OOG79C5W","0","3","3","3","4","15156","2017-09-14 14:21:51","3317"
"AMA18W8F60Y2J","caus_thomas_all_v1","3PWWM24LHSZWBYHUW10AVFPT66X28F","5","0","0","5","5","38027","2017-09-14 14:21:57","3318"
"A7ULVYZ4JGW8L","caus_thomas_all_v1","30IQTZXKAK7FUPFOPM8OSQD70HLX0X","8","2","2","2","10","11325","2017-09-14 14:21:57","3319"
"A3HTLXAPOBCVVO","caus_thomas_all_v1","3WYP994K17SZ85RDW7A7K5U7FQ26YE","4","1","1","2","2","25026","2017-09-14 14:21:58","3320"
"A1NSWJKFJIZ06J","caus_thomas_all_v1","3D4CH1LGEAUM4X8B08RDXFE50VK9GU","6","4","4","4","5","7585","2017-09-14 14:22:00","3321"
"AQ4PZ6W8NIDH3","caus_thomas_all_v1","3KGTPGBS6XMU9VO7Z41FR77I3XOU2M","7","3","3","3","6","13600","2017-09-14 14:22:00","3322"
"A1JCKICNOC7DAB
","caus_thomas_all_v1","3483FV8BEEK97KY63M3CB1T20B726T","0","2","2","6","8","16533","2017-09-14 14:22:02","3323"
"a2mqmmcvzjtfl2","caus_thomas_all_v1","3HHRAGRYX86AWAP9OR4L2ON7RHB9OH","0","0","0","2","8","46673","2017-09-14 14:22:03","3324"
"A9O273N0X06JS","caus_thomas_all_v1","3Q8GYXHFEP3QMYQUVWIDV8OOG79C5W","0","4","4","10","2","11613","2017-09-14 14:22:04","3325"
"AMA18W8F60Y2J","caus_thomas_all_v1","3PWWM24LHSZWBYHUW10AVFPT66X28F","5","1","1","2","2","10070","2017-09-14 14:22:08","3326"
"A36X54Z0EPUUOQ","caus_thomas_all_v1","31Q0U3WYDPGLMZUF3S8QCWJT3GD71G","1","0","0","8","5","57371","2017-09-14 14:22:09","3327"
"A2DP32IQRO1N6K","caus_thomas_all_v1","3DQQ64TANGM3T6EIW2RS5808ZNRPW3","0","0","0","10","6","50985","2017-09-14 14:22:10","3328"
"A1JCKICNOC7DAB
","caus_thomas_all_v1","3483FV8BEEK97KY63M3CB1T20B726T","2","3","3","5","7","9880","2017-09-14 14:22:13","3329"
"A7ULVYZ4JGW8L","caus_thomas_all_v1","30IQTZXKAK7FUPFOPM8OSQD70HLX0X","1","3","3","6","8","16464","2017-09-14 14:22:15","3330"
"AQ4PZ6W8NIDH3","caus_thomas_all_v1","3KGTPGBS6XMU9VO7Z41FR77I3XOU2M","6","4","4","6","4","15803","2017-09-14 14:22:17","3331"
"AU8YVB738G6C","caus_thomas_all_v1","3IUZPWIU1O82IFH2JAMK9RE95DLWK9","1","1","1","1","6","49802","2017-09-14 14:22:18","3332"
"a2mqmmcvzjtfl2","caus_thomas_all_v1","3HHRAGRYX86AWAP9OR4L2ON7RHB9OH","0","1","1","4","6","13484","2017-09-14 14:22:18","3333"
"AMA18W8F60Y2J","caus_thomas_all_v1","3PWWM24LHSZWBYHUW10AVFPT66X28F","3","2","2","8","6","10053","2017-09-14 14:22:19","3334"
"A7ULVYZ4JGW8L","caus_thomas_all_v1","30IQTZXKAK7FUPFOPM8OSQD70HLX0X","1","4","4","4","4","7055","2017-09-14 14:22:23","3335"
"a2mqmmcvzjtfl2","caus_thomas_all_v1","3HHRAGRYX86AWAP9OR4L2ON7RHB9OH","0","2","2","6","1","4700","2017-09-14 14:22:24","3336"
"A3A32ENJXK1VCR","caus_thomas_all_v1","354GIDR5ZB77XZ9DMAJHJCQWQA1006","8","0","0","8","10","25123","2017-09-14 14:22:24","3337"
"A3HTLXAPOBCVVO","caus_thomas_all_v1","3WYP994K17SZ85RDW7A7K5U7FQ26YE","6","2","2","3","9","25189","2017-09-14 14:22:24","3338"
"A36X54Z0EPUUOQ","caus_thomas_all_v1","31Q0U3WYDPGLMZUF3S8QCWJT3GD71G","3","1","1","9","10","13497","2017-09-14 14:22:25","3339"
"A3SN5P43U6KKLT
A3SN5P43U6KKLT
A3SN5P43U6KKLT
A3SN5P43U6KKLT","caus_thomas_all_v1","3A4TN5196KJ22RAPWYJMK5RELG0CHD","4","0","0","5","6","58927","2017-09-14 14:22:27","3340"
"AMA18W8F60Y2J","caus_thomas_all_v1","3PWWM24LHSZWBYHUW10AVFPT66X28F","2","3","3","9","9","7813","2017-09-14 14:22:28","3341"
"A1M5BJTQIXCM33","caus_thomas_all_v1","3PEIJLRY6TU82FG9IT19ZLMB1M0XWZ","6","0","0","3","4","30763","2017-09-14 14:22:32","3342"
"A1JCKICNOC7DAB
","caus_thomas_all_v1","3483FV8BEEK97KY63M3CB1T20B726T","1","4","4","4","1","17771","2017-09-14 14:22:32","3343"
"a2mqmmcvzjtfl2","caus_thomas_all_v1","3HHRAGRYX86AWAP9OR4L2ON7RHB9OH","0","3","3","10","4","9277","2017-09-14 14:22:34","3344"
"AMA18W8F60Y2J","caus_thomas_all_v1","3PWWM24LHSZWBYHUW10AVFPT66X28F","2","4","4","6","7","5331","2017-09-14 14:22:34","3345"
"AX8RDFKYAO9BX","caus_thomas_all_v1","3HMVI3QICJT41JQGQ1YQP93Q7FLY17","8","0","0","1","1","25133","2017-09-14 14:22:38","3346"
"A3HTLXAPOBCVVO","caus_thomas_all_v1","3WYP994K17SZ85RDW7A7K5U7FQ26YE","4","3","3","8","6","12742","2017-09-14 14:22:38","3347"
"a2mqmmcvzjtfl2","caus_thomas_all_v1","3HHRAGRYX86AWAP9OR4L2ON7RHB9OH","0","4","4","8","2","4054","2017-09-14 14:22:39","3348"
"A1H1ZROJJ360M7","caus_thomas_all_v1","3CN4LGXD5XPLTINZDJHSN7ATJZW4YR","0","0","0","4","3","42229","2017-09-14 14:22:40","3349"
"AX8RDFKYAO9BX","caus_thomas_all_v1","3HMVI3QICJT41JQGQ1YQP93Q7FLY17","6","1","1","7","10","2901","2017-09-14 14:22:41","3350"
"A2DP32IQRO1N6K","caus_thomas_all_v1","3DQQ64TANGM3T6EIW2RS5808ZNRPW3","1","1","1","6","8","31783","2017-09-14 14:22:43","3351"
"AWCZ4NEHZ0XG9","caus_thomas_all_v1","3EG49X351UDA8013RBO51RNYDK86X8","4","0","0","8","7","50039","2017-09-14 14:22:44","3352"
"A3A32ENJXK1VCR","caus_thomas_all_v1","354GIDR5ZB77XZ9DMAJHJCQWQA1006","5","1","1","3","5","19760","2017-09-14 14:22:45","3353"
"AX8RDFKYAO9BX","caus_thomas_all_v1","3HMVI3QICJT41JQGQ1YQP93Q7FLY17","6","2","2","8","6","3014","2017-09-14 14:22:46","3354"
"A1M5BJTQIXCM33","caus_thomas_all_v1","3PEIJLRY6TU82FG9IT19ZLMB1M0XWZ","0","1","1","1","1","13494","2017-09-14 14:22:46","3355"
"AX8RDFKYAO9BX","caus_thomas_all_v1","3HMVI3QICJT41JQGQ1YQP93Q7FLY17","5","3","3","4","3","3021","2017-09-14 14:22:49","3356"
"AU8YVB738G6C","caus_thomas_all_v1","3IUZPWIU1O82IFH2JAMK9RE95DLWK9","3","2","2","9","8","31309","2017-09-14 14:22:50","3357"
"A2ADP8OZY39H5A","caus_thomas_all_v1","3W92K5RLWUIML7WUMDDIL0CD1EOV5D","1","0","0","1","8","50724","2017-09-14 14:22:51","3358"
"A3SN5P43U6KKLT
A3SN5P43U6KKLT
A3SN5P43U6KKLT
A3SN5P43U6KKLT","caus_thomas_all_v1","3A4TN5196KJ22RAPWYJMK5RELG0CHD","4","1","1","10","8","24646","2017-09-14 14:22:53","3359"
"AX8RDFKYAO9BX","caus_thomas_all_v1","3HMVI3QICJT41JQGQ1YQP93Q7FLY17","4","4","4","6","8","4679","2017-09-14 14:22:55","3360"
"A3A32ENJXK1VCR","caus_thomas_all_v1","354GIDR5ZB77XZ9DMAJHJCQWQA1006","3","2","2","4","2","10819","2017-09-14 14:22:57","3361"
"A36X54Z0EPUUOQ","caus_thomas_all_v1","31Q0U3WYDPGLMZUF3S8QCWJT3GD71G","3","2","2","3","3","32422","2017-09-14 14:22:57","3362"
"A1M5BJTQIXCM33","caus_thomas_all_v1","3PEIJLRY6TU82FG9IT19ZLMB1M0XWZ","3","2","2","8","7","10806","2017-09-14 14:22:58","3363"
"A2EIN7ZHCKD3DM","caus_thomas_all_v1","3AZHRG4CU4L3ER8A5X10LAO3TML031","6","0","0","1","7","39448","2017-09-14 14:22:59","3364"
"A1H1ZROJJ360M7","caus_thomas_all_v1","3CN4LGXD5XPLTINZDJHSN7ATJZW4YR","0","1","1","2","1","18131","2017-09-14 14:22:59","3365"
"A2DP32IQRO1N6K","caus_thomas_all_v1","3DQQ64TANGM3T6EIW2RS5808ZNRPW3","4","2","2","4","2","16744","2017-09-14 14:23:01","3366"
"A3HTLXAPOBCVVO","caus_thomas_all_v1","3WYP994K17SZ85RDW7A7K5U7FQ26YE","2","4","4","9","7","22239","2017-09-14 14:23:01","3367"
"A4UIXESOEZI05","caus_thomas_all_v1","3AZHRG4CU4L3ER8A5X10LAO3TML304","7","0","0","2","9","32210","2017-09-14 14:23:03","3368"
"A3SN5P43U6KKLT
A3SN5P43U6KKLT
A3SN5P43U6KKLT
A3SN5P43U6KKLT","caus_thomas_all_v1","3A4TN5196KJ22RAPWYJMK5RELG0CHD","4","2","2","8","5","13620","2017-09-14 14:23:08","3369"
"A1M5BJTQIXCM33","caus_thomas_all_v1","3PEIJLRY6TU82FG9IT19ZLMB1M0XWZ","0","3","3","10","2","8914","2017-09-14 14:23:08","3370"
"A3A32ENJXK1VCR","caus_thomas_all_v1","354GIDR5ZB77XZ9DMAJHJCQWQA1006","1","3","3","9","3","10412","2017-09-14 14:23:08","3371"
"AU8YVB738G6C","caus_thomas_all_v1","3IUZPWIU1O82IFH2JAMK9RE95DLWK9","1","3","3","3","3","16631","2017-09-14 14:23:08","3372"
"A2ADP8OZY39H5A","caus_thomas_all_v1","3W92K5RLWUIML7WUMDDIL0CD1EOV5D","1","1","1","6","4","17466","2017-09-14 14:23:09","3373"
"A1H1ZROJJ360M7","caus_thomas_all_v1","3CN4LGXD5XPLTINZDJHSN7ATJZW4YR","0","2","2","10","6","9771","2017-09-14 14:23:10","3374"
"A2EIN7ZHCKD3DM","caus_thomas_all_v1","3AZHRG4CU4L3ER8A5X10LAO3TML031","8","1","1","3","10","11346","2017-09-14 14:23:11","3375"
"A2DP32IQRO1N6K","caus_thomas_all_v1","3DQQ64TANGM3T6EIW2RS5808ZNRPW3","4","3","3","3","4","12000","2017-09-14 14:23:14","3376"
"A3A32ENJXK1VCR","caus_thomas_all_v1","354GIDR5ZB77XZ9DMAJHJCQWQA1006","0","4","4","10","4","4656","2017-09-14 14:23:14","3377"
"AV182SXSO370E","caus_thomas_all_v1","3BV8HQ2ZZW2YCNTAG1WRHJC0CZZA68","4","0","0","5","5","72200","2017-09-14 14:23:14","3378"
"AWCZ4NEHZ0XG9","caus_thomas_all_v1","3EG49X351UDA8013RBO51RNYDK86X8","2","1","1","9","10","29264","2017-09-14 14:23:15","3379"
"A39GP79ULCP9J2","caus_thomas_all_v1","39JEC7537U27KS591N0QZ6INTVAVCL","8","0","0","3","3","23883","2017-09-14 14:23:16","3380"
"A36X54Z0EPUUOQ","caus_thomas_all_v1","31Q0U3WYDPGLMZUF3S8QCWJT3GD71G","2","3","3","4","7","18475","2017-09-14 14:23:16","3381"
"A1M5BJTQIXCM33","caus_thomas_all_v1","3PEIJLRY6TU82FG9IT19ZLMB1M0XWZ","8","4","4","2","8","8845","2017-09-14 14:23:18","3382"
"A2ADP8OZY39H5A","caus_thomas_all_v1","3W92K5RLWUIML7WUMDDIL0CD1EOV5D","1","2","2","8","2","8188","2017-09-14 14:23:18","3383"
"A2EIN7ZHCKD3DM","caus_thomas_all_v1","3AZHRG4CU4L3ER8A5X10LAO3TML031","2","2","2","7","4","6453","2017-09-14 14:23:19","3384"
"A3SN5P43U6KKLT
A3SN5P43U6KKLT
A3SN5P43U6KKLT
A3SN5P43U6KKLT","caus_thomas_all_v1","3A4TN5196KJ22RAPWYJMK5RELG0CHD","4","3","3","6","7","11765","2017-09-14 14:23:20","3385"
"A4UIXESOEZI05","caus_thomas_all_v1","3AZHRG4CU4L3ER8A5X10LAO3TML304","4","1","1","7","3","18150","2017-09-14 14:23:23","3386"
"A1H1ZROJJ360M7","caus_thomas_all_v1","3CN4LGXD5XPLTINZDJHSN7ATJZW4YR","0","3","3","1","2","12555","2017-09-14 14:23:23","3387"
"AU8YVB738G6C","caus_thomas_all_v1","3IUZPWIU1O82IFH2JAMK9RE95DLWK9","2","4","4","5","5","17617","2017-09-14 14:23:27","3388"
"A2ADP8OZY39H5A","caus_thomas_all_v1","3W92K5RLWUIML7WUMDDIL0CD1EOV5D","1","3","3","3","7","7990","2017-09-14 14:23:27","3389"
"A3SN5P43U6KKLT
A3SN5P43U6KKLT
A3SN5P43U6KKLT
A3SN5P43U6KKLT","caus_thomas_all_v1","3A4TN5196KJ22RAPWYJMK5RELG0CHD","4","4","4","7","9","7782","2017-09-14 14:23:29","3390"
"A2EIN7ZHCKD3DM","caus_thomas_all_v1","3AZHRG4CU4L3ER8A5X10LAO3TML031","1","3","3","4","3","9782","2017-09-14 14:23:29","3391"
" AHIPB9HCQMI07 ","caus_thomas_all_v1","3Q8GYXHFEP3QMYQUVWIDV8OOG795CP","2","0","0","4","1","51010","2017-09-14 14:23:30","3392"
"A4MNEMGPU0KAD","caus_thomas_all_v1","3WAKVUDHUWH1VWLD5GIANYOQEDB7UG","0","0","0","5","8","29531","2017-09-14 14:23:31","3393"
"A2DP32IQRO1N6K","caus_thomas_all_v1","3DQQ64TANGM3T6EIW2RS5808ZNRPW3","4","4","4","2","9","16080","2017-09-14 14:23:31","3394"
"A39GP79ULCP9J2","caus_thomas_all_v1","39JEC7537U27KS591N0QZ6INTVAVCL","8","1","1","2","9","15829","2017-09-14 14:23:33","3395"
"A36X54Z0EPUUOQ","caus_thomas_all_v1","31Q0U3WYDPGLMZUF3S8QCWJT3GD71G","4","4","4","5","4","16894","2017-09-14 14:23:34","3396"
"A2EIN7ZHCKD3DM","caus_thomas_all_v1","3AZHRG4CU4L3ER8A5X10LAO3TML031","0","4","4","10","9","4246","2017-09-14 14:23:35","3397"
"A1H1ZROJJ360M7","caus_thomas_all_v1","3CN4LGXD5XPLTINZDJHSN7ATJZW4YR","0","4","4","5","9","10265","2017-09-14 14:23:35","3398"
"AWCZ4NEHZ0XG9","caus_thomas_all_v1","3EG49X351UDA8013RBO51RNYDK86X8","5","2","2","7","5","19822","2017-09-14 14:23:35","3399"
"A4UIXESOEZI05","caus_thomas_all_v1","3AZHRG4CU4L3ER8A5X10LAO3TML304","3","2","2","9","6","12616","2017-09-14 14:23:36","3400"
"A2ADP8OZY39H5A","caus_thomas_all_v1","3W92K5RLWUIML7WUMDDIL0CD1EOV5D","1","4","4","9","1","8007","2017-09-14 14:23:36","3401"
"A3QN9B9ZS1CWWM","caus_thomas_all_v1","3ZWFC4W1UU8MUX82J5LH6FEN52QFRO","4","0","0","5","9","41183","2017-09-14 14:23:40","3402"
"AEZ64TVDZQOU6","caus_thomas_all_v1","3VELCLL3GKKY1S9LLB620OWA14WF1S","0","0","0","3","5","134478","2017-09-14 14:23:42","3403"
"AWE9A4ZOP9LNU","caus_thomas_all_v1","3AAPLD8UCCIJO8C0IKEC9FRI920HT1","4","0","0","7","4","22815","2017-09-14 14:23:44","3404"
"AV182SXSO370E","caus_thomas_all_v1","3BV8HQ2ZZW2YCNTAG1WRHJC0CZZA68","8","1","1","4","8","28919","2017-09-14 14:23:44","3405"
"A21KU81RRUYR6G","caus_thomas_all_v1","39O5D9O87TTN8J3QHDUKGBQ42BI3CX","0","0","0","3","5","26272","2017-09-14 14:23:44","3406"
"A39GP79ULCP9J2","caus_thomas_all_v1","39JEC7537U27KS591N0QZ6INTVAVCL","8","2","2","4","8","11640","2017-09-14 14:23:46","3407"
"A4UIXESOEZI05","caus_thomas_all_v1","3AZHRG4CU4L3ER8A5X10LAO3TML304","4","3","3","10","10","9645","2017-09-14 14:23:47","3408"
"A4MNEMGPU0KAD","caus_thomas_all_v1","3WAKVUDHUWH1VWLD5GIANYOQEDB7UG","0","1","1","10","2","16175","2017-09-14 14:23:48","3409"
"A2H6RIWM50KWA4","caus_thomas_all_v1","3SEPORI8WN000XDLI6T2EH5VH3VZAN","0","2","2","4","10","146614","2017-09-14 14:23:51","3410"
" AHIPB9HCQMI07 ","caus_thomas_all_v1","3Q8GYXHFEP3QMYQUVWIDV8OOG795CP","2","1","1","2","3","22162","2017-09-14 14:23:53","3411"
"AWE9A4ZOP9LNU","caus_thomas_all_v1","3AAPLD8UCCIJO8C0IKEC9FRI920HT1","4","1","1","1","6","9595","2017-09-14 14:23:54","3412"
"A1QSUIQRZFQ85E","caus_thomas_all_v1","32SVAV9L3FAZF46SXZYTAG0G28X3AV","4","0","0","2","7","41493","2017-09-14 14:23:54","3413"
"A2QR5A1Z4D9SU1","caus_thomas_all_v1","3EKVH9QMEY58STDLD9BQH73UHXUD2W","4","0","0","10","10","54711","2017-09-14 14:23:54","3414"
"AWCZ4NEHZ0XG9","caus_thomas_all_v1","3EG49X351UDA8013RBO51RNYDK86X8","4","3","3","5","6","18342","2017-09-14 14:23:55","3415"
"A2EBNMFLUR2SQF","caus_thomas_all_v1","3QY7M81QH7NNS0G1B2E8HBFSCMD7KJ","4","0","0","6","3","13315","2017-09-14 14:23:55","3416"
"AV182SXSO370E","caus_thomas_all_v1","3BV8HQ2ZZW2YCNTAG1WRHJC0CZZA68","8","2","2","3","6","11493","2017-09-14 14:23:57","3417"
"A39WGGJ22N4S4F","caus_thomas_all_v1","3STRJBFXOWSAQYD8O5H9M77A1J4KT8","4","0","0","7","9","21848","2017-09-14 14:23:57","3418"
"A3QN9B9ZS1CWWM","caus_thomas_all_v1","3ZWFC4W1UU8MUX82J5LH6FEN52QFRO","4","1","1","4","4","15877","2017-09-14 14:23:57","3419"
"A4UIXESOEZI05","caus_thomas_all_v1","3AZHRG4CU4L3ER8A5X10LAO3TML304","6","4","4","1","4","11187","2017-09-14 14:23:59","3420"
"AEZ64TVDZQOU6","caus_thomas_all_v1","3VELCLL3GKKY1S9LLB620OWA14WF1S","0","1","1","9","6","15983","2017-09-14 14:23:59","3421"
"A4MNEMGPU0KAD","caus_thomas_all_v1","3WAKVUDHUWH1VWLD5GIANYOQEDB7UG","0","2","2","6","4","13435","2017-09-14 14:24:02","3422"
"A21KU81RRUYR6G","caus_thomas_all_v1","39O5D9O87TTN8J3QHDUKGBQ42BI3CX","0","1","1","4","3","17576","2017-09-14 14:24:03","3423"
"AWCZ4NEHZ0XG9","caus_thomas_all_v1","3EG49X351UDA8013RBO51RNYDK86X8","1","4","4","3","9","10702","2017-09-14 14:24:06","3424"
"A3QN9B9ZS1CWWM","caus_thomas_all_v1","3ZWFC4W1UU8MUX82J5LH6FEN52QFRO","4","2","2","8","2","8636","2017-09-14 14:24:07","3425"
"A2H6RIWM50KWA4","caus_thomas_all_v1","3SEPORI8WN000XDLI6T2EH5VH3VZAN","0","3","3","6","9","15317","2017-09-14 14:24:07","3426"
"A39WGGJ22N4S4F","caus_thomas_all_v1","3STRJBFXOWSAQYD8O5H9M77A1J4KT8","4","1","1","3","8","9156","2017-09-14 14:24:07","3427"
"AEZ64TVDZQOU6","caus_thomas_all_v1","3VELCLL3GKKY1S9LLB620OWA14WF1S","0","2","2","8","10","7422","2017-09-14 14:24:08","3428"
"AWE9A4ZOP9LNU","caus_thomas_all_v1","3AAPLD8UCCIJO8C0IKEC9FRI920HT1","4","2","2","6","8","13525","2017-09-14 14:24:09","3429"
"A1XPYRCDDORKTS","caus_thomas_all_v1","34Q075JO1XE74OUVITNHXH96V27019","0","0","0","9","5","94866","2017-09-14 14:24:09","3430"
"A330JJZGJL7IG2","caus_thomas_all_v1","3Y9N9SS8LYCXDB94H9PV0H8MNBU3DX","4","0","0","4","2","28404","2017-09-14 14:24:09","3431"
"A2EBNMFLUR2SQF","caus_thomas_all_v1","3QY7M81QH7NNS0G1B2E8HBFSCMD7KJ","1","1","1","8","5","14035","2017-09-14 14:24:10","3432"
" AHIPB9HCQMI07 ","caus_thomas_all_v1","3Q8GYXHFEP3QMYQUVWIDV8OOG795CP","8","2","2","5","10","19011","2017-09-14 14:24:13","3433"
"A3QN9B9ZS1CWWM","caus_thomas_all_v1","3ZWFC4W1UU8MUX82J5LH6FEN52QFRO","4","3","3","1","3","6202","2017-09-14 14:24:14","3434"
"AWE9A4ZOP9LNU","caus_thomas_all_v1","3AAPLD8UCCIJO8C0IKEC9FRI920HT1","4","3","3","10","5","4981","2017-09-14 14:24:15","3435"
"A39WGGJ22N4S4F","caus_thomas_all_v1","3STRJBFXOWSAQYD8O5H9M77A1J4KT8","4","2","2","2","1","6803","2017-09-14 14:24:15","3436"
"A2EBNMFLUR2SQF","caus_thomas_all_v1","3QY7M81QH7NNS0G1B2E8HBFSCMD7KJ","5","2","2","1","6","4933","2017-09-14 14:24:16","3437"
"AV182SXSO370E","caus_thomas_all_v1","3BV8HQ2ZZW2YCNTAG1WRHJC0CZZA68","8","3","3","1","1","18975","2017-09-14 14:24:17","3438"
"A4MNEMGPU0KAD","caus_thomas_all_v1","3WAKVUDHUWH1VWLD5GIANYOQEDB7UG","0","3","3","4","6","13547","2017-09-14 14:24:17","3439"
"A21KU81RRUYR6G","caus_thomas_all_v1","39O5D9O87TTN8J3QHDUKGBQ42BI3CX","0","2","2","8","10","13631","2017-09-14 14:24:18","3440"
"A1QSUIQRZFQ85E","caus_thomas_all_v1","32SVAV9L3FAZF46SXZYTAG0G28X3AV","3","1","1","8","3","23508","2017-09-14 14:24:19","3441"
"AEZ64TVDZQOU6","caus_thomas_all_v1","3VELCLL3GKKY1S9LLB620OWA14WF1S","0","3","3","4","4","10286","2017-09-14 14:24:19","3442"
"AWE9A4ZOP9LNU","caus_thomas_all_v1","3AAPLD8UCCIJO8C0IKEC9FRI920HT1","4","4","4","5","2","4522","2017-09-14 14:24:20","3443"
"A3QN9B9ZS1CWWM","caus_thomas_all_v1","3ZWFC4W1UU8MUX82J5LH6FEN52QFRO","4","4","4","6","8","5575","2017-09-14 14:24:21","3444"
"A2H6RIWM50KWA4","caus_thomas_all_v1","3SEPORI8WN000XDLI6T2EH5VH3VZAN","0","4","4","9","6","13341","2017-09-14 14:24:22","3445"
"A330JJZGJL7IG2","caus_thomas_all_v1","3Y9N9SS8LYCXDB94H9PV0H8MNBU3DX","4","1","1","7","4","12519","2017-09-14 14:24:23","3446"
"A2EBNMFLUR2SQF","caus_thomas_all_v1","3QY7M81QH7NNS0G1B2E8HBFSCMD7KJ","6","3","3","2","7","5660","2017-09-14 14:24:23","3447"
"A39WGGJ22N4S4F","caus_thomas_all_v1","3STRJBFXOWSAQYD8O5H9M77A1J4KT8","4","3","3","6","6","9120","2017-09-14 14:24:25","3448"
"AV182SXSO370E","caus_thomas_all_v1","3BV8HQ2ZZW2YCNTAG1WRHJC0CZZA68","5","4","4","6","9","9747","2017-09-14 14:24:28","3449"
"A21KU81RRUYR6G","caus_thomas_all_v1","39O5D9O87TTN8J3QHDUKGBQ42BI3CX","0","3","3","9","6","9231","2017-09-14 14:24:28","3450"
"A39GP79ULCP9J2","caus_thomas_all_v1","39JEC7537U27KS591N0QZ6INTVAVCL","8","3","3","7","6","41446","2017-09-14 14:24:28","3451"
" AHIPB9HCQMI07 ","caus_thomas_all_v1","3Q8GYXHFEP3QMYQUVWIDV8OOG795CP","8","3","3","1","8","14663","2017-09-14 14:24:29","3452"
"AEZ64TVDZQOU6","caus_thomas_all_v1","3VELCLL3GKKY1S9LLB620OWA14WF1S","0","4","4","5","7","10309","2017-09-14 14:24:30","3453"
"AF3ZUFKYQ9AG3
AF3ZUFKYQ9AG3
","caus_thomas_all_v1","33NF62TLXJ3GCVH3CB35K1K13HDKJ3","7","0","0","8","9","59801","2017-09-14 14:24:30","3454"
"A1QSUIQRZFQ85E","caus_thomas_all_v1","32SVAV9L3FAZF46SXZYTAG0G28X3AV","0","2","2","10","1","10923","2017-09-14 14:24:31","3455"
"A2EBNMFLUR2SQF","caus_thomas_all_v1","3QY7M81QH7NNS0G1B2E8HBFSCMD7KJ","4","4","4","4","8","6808","2017-09-14 14:24:31","3456"
"A4MNEMGPU0KAD","caus_thomas_all_v1","3WAKVUDHUWH1VWLD5GIANYOQEDB7UG","8","4","4","8","10","12976","2017-09-14 14:24:31","3457"
"A330JJZGJL7IG2","caus_thomas_all_v1","3Y9N9SS8LYCXDB94H9PV0H8MNBU3DX","4","2","2","6","9","8532","2017-09-14 14:24:32","3458"
"A39WGGJ22N4S4F","caus_thomas_all_v1","3STRJBFXOWSAQYD8O5H9M77A1J4KT8","4","4","4","5","5","6012","2017-09-14 14:24:32","3459"
"A2LI0QVPKA5CG8","caus_thomas_all_v1","3JNQLM5FT4NRQ51DQQ9E0KBZQ6WL2K","0","0","0","9","6","20630","2017-09-14 14:24:35","3460"
"A3FPXLLF0B8CIC","caus_thomas_all_v1","3UOUJI6MTDFVABR4NTM8HX1EG6PXU0","5","0","0","7","5","33877","2017-09-14 14:24:35","3461"
"A3DRKJIAWYMA9F","caus_thomas_all_v1","3V5Q80FXIXSAA1BOKK5E4YHIQK532O","7","0","0","5","6","112879","2017-09-14 14:24:36","3462"
"A21KU81RRUYR6G","caus_thomas_all_v1","39O5D9O87TTN8J3QHDUKGBQ42BI3CX","0","4","4","6","7","7670","2017-09-14 14:24:37","3463"
"A308QGLJECJUFQ","caus_thomas_all_v1","31UV0MXWNQDHZ1CUN6EZ6BMJTCT5IR","0","0","0","6","4","86288","2017-09-14 14:24:38","3464"
"A1MTQP7TA5RCOB","caus_thomas_all_v1","34FNN24DCMA3P1RZRO02SZG7JVR5YX","0","0","0","7","5","26066","2017-09-14 14:24:38","3465"
"A1QX6AXRT6T94R","caus_thomas_all_v1","3HOSI13XHZPVV3B1AYV7DQUYEOJDD5","0","0","0","10","7","29891","2017-09-14 14:24:39","3466"
"A39GP79ULCP9J2","caus_thomas_all_v1","39JEC7537U27KS591N0QZ6INTVAVCL","8","4","4","8","2","10416","2017-09-14 14:24:40","3467"
"A3N5HUHR6W70YQ
","caus_thomas_all_v1","3PWWM24LHSZWBYHUW10AVFPT66X82L","0","0","0","7","1","30028","2017-09-14 14:24:42","3468"
"A2QR5A1Z4D9SU1","caus_thomas_all_v1","3EKVH9QMEY58STDLD9BQH73UHXUD2W","7","1","1","4","1","46996","2017-09-14 14:24:42","3469"
"A330JJZGJL7IG2","caus_thomas_all_v1","3Y9N9SS8LYCXDB94H9PV0H8MNBU3DX","4","3","3","3","3","8958","2017-09-14 14:24:42","3470"
"A1QSUIQRZFQ85E","caus_thomas_all_v1","32SVAV9L3FAZF46SXZYTAG0G28X3AV","4","3","3","3","4","13835","2017-09-14 14:24:45","3471"
" AHIPB9HCQMI07 ","caus_thomas_all_v1","3Q8GYXHFEP3QMYQUVWIDV8OOG795CP","7","4","4","7","9","16611","2017-09-14 14:24:47","3472"
"A2NH6M60H95WIO","caus_thomas_all_v1","33M4IA01QG23UJZNJZR3CMEU97LXRW","4","0","0","6","1","52529","2017-09-14 14:24:47","3473"
"A106X5YTVYPF43","caus_thomas_all_v1","3X1FV8S5JXSK14LE39W9PX32RN3GVH","8","0","0","2","8","28300","2017-09-14 14:24:49","3474"
"AU3NJ6CG34UP","caus_thomas_all_v1","33C7UALJVLZPMDZYDX0WQWFOE0J814","0","0","0","10","8","32616","2017-09-14 14:24:49","3475"
"A3DRKJIAWYMA9F","caus_thomas_all_v1","3V5Q80FXIXSAA1BOKK5E4YHIQK532O","7","1","1","10","2","12475","2017-09-14 14:24:50","3476"
"A1MTQP7TA5RCOB","caus_thomas_all_v1","34FNN24DCMA3P1RZRO02SZG7JVR5YX","1","1","1","2","8","10477","2017-09-14 14:24:50","3477"
"A1XPYRCDDORKTS","caus_thomas_all_v1","34Q075JO1XE74OUVITNHXH96V27019","0","1","1","5","7","41149","2017-09-14 14:24:50","3478"
"A330JJZGJL7IG2","caus_thomas_all_v1","3Y9N9SS8LYCXDB94H9PV0H8MNBU3DX","4","4","4","5","6","7007","2017-09-14 14:24:50","3479"
"A3FPXLLF0B8CIC","caus_thomas_all_v1","3UOUJI6MTDFVABR4NTM8HX1EG6PXU0","2","1","1","2","2","14269","2017-09-14 14:24:51","3480"
"A1QX6AXRT6T94R","caus_thomas_all_v1","3HOSI13XHZPVV3B1AYV7DQUYEOJDD5","6","1","1","5","3","13020","2017-09-14 14:24:53","3481"
"A2LI0QVPKA5CG8","caus_thomas_all_v1","3JNQLM5FT4NRQ51DQQ9E0KBZQ6WL2K","0","1","1","2","8","17643","2017-09-14 14:24:54","3482"
"A1QSUIQRZFQ85E","caus_thomas_all_v1","32SVAV9L3FAZF46SXZYTAG0G28X3AV","8","4","4","4","10","10308","2017-09-14 14:24:57","3483"
"A2SN9S7CGIDSRI","caus_thomas_all_v1","3RRCEFRB7MDPGAUO3R38FWCSYQEB4J","0","0","0","3","1","42230","2017-09-14 14:24:57","3484"
"A1MTQP7TA5RCOB","caus_thomas_all_v1","34FNN24DCMA3P1RZRO02SZG7JVR5YX","0","2","2","5","4","6927","2017-09-14 14:24:58","3485"
"A3FPXLLF0B8CIC","caus_thomas_all_v1","3UOUJI6MTDFVABR4NTM8HX1EG6PXU0","7","2","2","9","8","6594","2017-09-14 14:24:58","3486"
"A3DRKJIAWYMA9F","caus_thomas_all_v1","3V5Q80FXIXSAA1BOKK5E4YHIQK532O","4","2","2","6","1","8823","2017-09-14 14:25:00","3487"
"AF3ZUFKYQ9AG3
AF3ZUFKYQ9AG3
","caus_thomas_all_v1","33NF62TLXJ3GCVH3CB35K1K13HDKJ3","8","1","1","1","10","28384","2017-09-14 14:25:00","3488"
"A2Z96TK65BB7LC
","caus_thomas_all_v1","3MAOD8E57QBIFL7VQSAM329K8AWXN8","0","0","0","7","1","42272","2017-09-14 14:25:04","3489"
"A1QX6AXRT6T94R","caus_thomas_all_v1","3HOSI13XHZPVV3B1AYV7DQUYEOJDD5","7","2","2","4","10","10912","2017-09-14 14:25:05","3490"
"A106X5YTVYPF43","caus_thomas_all_v1","3X1FV8S5JXSK14LE39W9PX32RN3GVH","8","1","1","9","4","17811","2017-09-14 14:25:08","3491"
"A2LI0QVPKA5CG8","caus_thomas_all_v1","3JNQLM5FT4NRQ51DQQ9E0KBZQ6WL2K","0","2","2","7","3","13593","2017-09-14 14:25:09","3492"
"AU3NJ6CG34UP","caus_thomas_all_v1","33C7UALJVLZPMDZYDX0WQWFOE0J814","4","1","1","9","2","18928","2017-09-14 14:25:09","3493"
"A3N5HUHR6W70YQ
","caus_thomas_all_v1","3PWWM24LHSZWBYHUW10AVFPT66X82L","0","1","1","10","4","26633","2017-09-14 14:25:09","3494"
"A2NH6M60H95WIO","caus_thomas_all_v1","33M4IA01QG23UJZNJZR3CMEU97LXRW","4","1","1","7","8","22041","2017-09-14 14:25:10","3495"
"A3FPXLLF0B8CIC","caus_thomas_all_v1","3UOUJI6MTDFVABR4NTM8HX1EG6PXU0","8","3","3","10","10","11384","2017-09-14 14:25:11","3496"
"A3DRKJIAWYMA9F","caus_thomas_all_v1","3V5Q80FXIXSAA1BOKK5E4YHIQK532O","6","3","3","8","7","10202","2017-09-14 14:25:11","3497"
"A1XPYRCDDORKTS","caus_thomas_all_v1","34Q075JO1XE74OUVITNHXH96V27019","0","2","2","3","8","21819","2017-09-14 14:25:13","3498"
"A2QR5A1Z4D9SU1","caus_thomas_all_v1","3EKVH9QMEY58STDLD9BQH73UHXUD2W","7","2","2","6","8","30262","2017-09-14 14:25:14","3499"
"a2zx7580nvwa61","caus_thomas_all_v1","339ANSOTR53KHKXXUTI58051Q2OIKP","8","0","0","1","5","16101","2017-09-14 14:25:14","3500"
"A1QX6AXRT6T94R","caus_thomas_all_v1","3HOSI13XHZPVV3B1AYV7DQUYEOJDD5","2","3","3","9","1","8288","2017-09-14 14:25:14","3501"
"A2SN9S7CGIDSRI","caus_thomas_all_v1","3RRCEFRB7MDPGAUO3R38FWCSYQEB4J","0","1","1","7","7","16884","2017-09-14 14:25:15","3502"
"A3FPXLLF0B8CIC","caus_thomas_all_v1","3UOUJI6MTDFVABR4NTM8HX1EG6PXU0","4","4","4","5","9","4077","2017-09-14 14:25:16","3503"
"A308QGLJECJUFQ","caus_thomas_all_v1","31UV0MXWNQDHZ1CUN6EZ6BMJTCT5IR","0","1","1","10","10","39387","2017-09-14 14:25:18","3504"
"A3DRKJIAWYMA9F","caus_thomas_all_v1","3V5Q80FXIXSAA1BOKK5E4YHIQK532O","7","4","4","2","4","8653","2017-09-14 14:25:20","3505"
"A1QX6AXRT6T94R","caus_thomas_all_v1","3HOSI13XHZPVV3B1AYV7DQUYEOJDD5","8","4","4","1","9","5629","2017-09-14 14:25:21","3506"
"AF3ZUFKYQ9AG3
AF3ZUFKYQ9AG3
","caus_thomas_all_v1","33NF62TLXJ3GCVH3CB35K1K13HDKJ3","1","2","2","9","2","20497","2017-09-14 14:25:21","3507"
"A2LI0QVPKA5CG8","caus_thomas_all_v1","3JNQLM5FT4NRQ51DQQ9E0KBZQ6WL2K","0","3","3","6","9","12623","2017-09-14 14:25:22","3508"
"A25N0K40JAZTN1","caus_thomas_all_v1","388U7OUMF72VXTTCGN2W38RJZ010R5","4","0","0","4","4","45316","2017-09-14 14:25:22","3509"
"a2zx7580nvwa61","caus_thomas_all_v1","339ANSOTR53KHKXXUTI58051Q2OIKP","6","1","1","2","3","8364","2017-09-14 14:25:24","3510"
"A24Q3ZTP8ZNHP6","caus_thomas_all_v1","3IXQG4FA2TZQDG00KMZZW4N8KISB9F","8","0","0","9","2","42200","2017-09-14 14:25:24","3511"
"AU3NJ6CG34UP","caus_thomas_all_v1","33C7UALJVLZPMDZYDX0WQWFOE0J814","5","2","2","6","4","14049","2017-09-14 14:25:24","3512"
"A2SN9S7CGIDSRI","caus_thomas_all_v1","3RRCEFRB7MDPGAUO3R38FWCSYQEB4J","0","2","2","10","3","9974","2017-09-14 14:25:26","3513"
"A3N5HUHR6W70YQ
","caus_thomas_all_v1","3PWWM24LHSZWBYHUW10AVFPT66X82L","0","2","2","8","9","16093","2017-09-14 14:25:27","3514"
"a2zx7580nvwa61","caus_thomas_all_v1","339ANSOTR53KHKXXUTI58051Q2OIKP","4","2","2","4","4","2145","2017-09-14 14:25:27","3515"
"A106X5YTVYPF43","caus_thomas_all_v1","3X1FV8S5JXSK14LE39W9PX32RN3GVH","7","2","2","8","5","18065","2017-09-14 14:25:27","3516"
"A1FO1SROGRL5RH","caus_thomas_all_v1","3P529IW9KYMBRZDPELOLK35OZA1LF4","0","0","0","6","6","17817","2017-09-14 14:25:29","3517"
"A12NNJKHIZP1TY","caus_thomas_all_v1","3C44YUNSI1Q4K0ERF7M2DKBNS7MDPJ","8","0","0","2","10","66147","2017-09-14 14:25:29","3518"
"A2VU177LZZVE5S","caus_thomas_all_v1","3I0BTBYZAXM4UU5YUIUQB4KG2NG0Y7","0","0","0","3","6","32142","2017-09-14 14:25:30","3519"
"a2zx7580nvwa61","caus_thomas_all_v1","339ANSOTR53KHKXXUTI58051Q2OIKP","0","3","3","8","7","3408","2017-09-14 14:25:31","3520"
"A1XPYRCDDORKTS","caus_thomas_all_v1","34Q075JO1XE74OUVITNHXH96V27019","0","3","3","2","3","17267","2017-09-14 14:25:31","3521"
"A25P1KW7TYHI8F","caus_thomas_all_v1","37U1UTWH9VNDFIYFBRFBWNX1IYD8R0","6","0","0","3","9","31341","2017-09-14 14:25:34","3522"
"AF3ZUFKYQ9AG3
AF3ZUFKYQ9AG3
","caus_thomas_all_v1","33NF62TLXJ3GCVH3CB35K1K13HDKJ3","6","3","3","4","6","12626","2017-09-14 14:25:35","3523"
"A2Q8WHCYTT58U7
","caus_thomas_all_v1","30LB5CDZNCB4ZKF3Q4W9PBTI8HK0ZY","8","0","0","3","1","24607","2017-09-14 14:25:35","3524"
"AU3NJ6CG34UP","caus_thomas_all_v1","33C7UALJVLZPMDZYDX0WQWFOE0J814","7","3","3","1","3","10399","2017-09-14 14:25:36","3525"
"A2SN9S7CGIDSRI","caus_thomas_all_v1","3RRCEFRB7MDPGAUO3R38FWCSYQEB4J","0","3","3","9","10","8761","2017-09-14 14:25:36","3526"
"A3N5HUHR6W70YQ
","caus_thomas_all_v1","3PWWM24LHSZWBYHUW10AVFPT66X82L","8","3","3","1","8","8275","2017-09-14 14:25:36","3527"
"A2NH6M60H95WIO","caus_thomas_all_v1","33M4IA01QG23UJZNJZR3CMEU97LXRW","3","2","2","4","3","25098","2017-09-14 14:25:36","3528"
"a2zx7580nvwa61","caus_thomas_all_v1","339ANSOTR53KHKXXUTI58051Q2OIKP","4","4","4","5","9","4689","2017-09-14 14:25:37","3529"
"A2LI0QVPKA5CG8","caus_thomas_all_v1","3JNQLM5FT4NRQ51DQQ9E0KBZQ6WL2K","0","4","4","1","4","13810","2017-09-14 14:25:37","3530"
"A2QR5A1Z4D9SU1","caus_thomas_all_v1","3EKVH9QMEY58STDLD9BQH73UHXUD2W","7","3","3","3","4","22944","2017-09-14 14:25:37","3531"
"A1FO1SROGRL5RH","caus_thomas_all_v1","3P529IW9KYMBRZDPELOLK35OZA1LF4","0","1","1","1","1","7546","2017-09-14 14:25:38","3532"
"A106X5YTVYPF43","caus_thomas_all_v1","3X1FV8S5JXSK14LE39W9PX32RN3GVH","8","3","3","10","6","10594","2017-09-14 14:25:38","3533"
"A1UCM4T7TZDUAO","caus_thomas_all_v1","3EFVCAY5L3AWHUF23M62UWBA8HJ8J8","4","0","0","9","9","52434","2017-09-14 14:25:39","3534"
"A308QGLJECJUFQ","caus_thomas_all_v1","31UV0MXWNQDHZ1CUN6EZ6BMJTCT5IR","0","2","2","1","1","21292","2017-09-14 14:25:41","3535"
"A3N5HUHR6W70YQ
","caus_thomas_all_v1","3PWWM24LHSZWBYHUW10AVFPT66X82L","7","4","4","2","6","6397","2017-09-14 14:25:43","3536"
"A12NNJKHIZP1TY","caus_thomas_all_v1","3C44YUNSI1Q4K0ERF7M2DKBNS7MDPJ","8","1","1","8","6","14086","2017-09-14 14:25:45","3537"
"A2SN9S7CGIDSRI","caus_thomas_all_v1","3RRCEFRB7MDPGAUO3R38FWCSYQEB4J","0","4","4","1","6","7991","2017-09-14 14:25:45","3538"
"A1FO1SROGRL5RH","caus_thomas_all_v1","3P529IW9KYMBRZDPELOLK35OZA1LF4","0","2","2","4","2","6303","2017-09-14 14:25:45","3539"
"A24Q3ZTP8ZNHP6","caus_thomas_all_v1","3IXQG4FA2TZQDG00KMZZW4N8KISB9F","8","1","1","10","7","20995","2017-09-14 14:25:46","3540"
"AF3ZUFKYQ9AG3
AF3ZUFKYQ9AG3
","caus_thomas_all_v1","33NF62TLXJ3GCVH3CB35K1K13HDKJ3","5","4","4","6","3","9930","2017-09-14 14:25:46","3541"
"A2NH6M60H95WIO","caus_thomas_all_v1","33M4IA01QG23UJZNJZR3CMEU97LXRW","3","3","3","8","6","8891","2017-09-14 14:25:46","3542"
"AU3NJ6CG34UP","caus_thomas_all_v1","33C7UALJVLZPMDZYDX0WQWFOE0J814","4","4","4","5","6","9661","2017-09-14 14:25:46","3543"
"A1XPYRCDDORKTS","caus_thomas_all_v1","34Q075JO1XE74OUVITNHXH96V27019","0","4","4","7","10","14359","2017-09-14 14:25:46","3544"
"A2Q8WHCYTT58U7
","caus_thomas_all_v1","30LB5CDZNCB4ZKF3Q4W9PBTI8HK0ZY","8","1","1","9","9","10325","2017-09-14 14:25:47","3545"
"AOB6ZJTDB416G","caus_thomas_all_v1","3E337GFOL997TZC51IAIFG9P5K1NG7","2","0","0","4","1","25763","2017-09-14 14:25:47","3546"
"A2WRKUN3RCJYW8","caus_thomas_all_v1","3CFVK00FWLMF86KEDSLHQXSB6BYL61","0","0","0","2","1","35419","2017-09-14 14:25:48","3547"
"A1MTQP7TA5RCOB","caus_thomas_all_v1","34FNN24DCMA3P1RZRO02SZG7JVR5YX","0","3","3","6","1","50684","2017-09-14 14:25:49","3548"
"A25P1KW7TYHI8F","caus_thomas_all_v1","37U1UTWH9VNDFIYFBRFBWNX1IYD8R0","2","1","1","9","4","15337","2017-09-14 14:25:50","3549"
"A1FO1SROGRL5RH","caus_thomas_all_v1","3P529IW9KYMBRZDPELOLK35OZA1LF4","0","3","3","10","7","4414","2017-09-14 14:25:50","3550"
"A25N0K40JAZTN1","caus_thomas_all_v1","388U7OUMF72VXTTCGN2W38RJZ010R5","4","1","1","6","10","27170","2017-09-14 14:25:51","3551"
"A2KWPS7YQS4HPT","caus_thomas_all_v1","3IJXV6UZ1XK64OASKDR29CRFLUIIRI","8","0","0","6","1","24001","2017-09-14 14:25:51","3552"
"A106X5YTVYPF43","caus_thomas_all_v1","3X1FV8S5JXSK14LE39W9PX32RN3GVH","8","4","4","5","1","13672","2017-09-14 14:25:53","3553"
"A2NH6M60H95WIO","caus_thomas_all_v1","33M4IA01QG23UJZNJZR3CMEU97LXRW","3","4","4","1","2","7503","2017-09-14 14:25:55","3554"
"A2QR5A1Z4D9SU1","caus_thomas_all_v1","3EKVH9QMEY58STDLD9BQH73UHXUD2W","7","4","4","7","3","16662","2017-09-14 14:25:55","3555"
"A2Q8WHCYTT58U7
","caus_thomas_all_v1","30LB5CDZNCB4ZKF3Q4W9PBTI8HK0ZY","8","2","2","2","8","7589","2017-09-14 14:25:55","3556"
"A3N3F77POSIH8J
","caus_thomas_all_v1","3TPZPLC3M0D628CUMIGQ0BPB1UX3PB","8","0","0","8","10","29765","2017-09-14 14:25:56","3557"
"A12NNJKHIZP1TY","caus_thomas_all_v1","3C44YUNSI1Q4K0ERF7M2DKBNS7MDPJ","8","2","2","7","7","9994","2017-09-14 14:25:56","3558"
"A1FO1SROGRL5RH","caus_thomas_all_v1","3P529IW9KYMBRZDPELOLK35OZA1LF4","0","4","4","5","8","4422","2017-09-14 14:25:56","3559"
"ABQ1B3GQ8AOTH","caus_thomas_all_v1","3VHHR074H3IYC6YJW2Q9WBS71MIL70","2","0","0","2","3","32989","2017-09-14 14:25:57","3560"
"A1MTQP7TA5RCOB","caus_thomas_all_v1","34FNN24DCMA3P1RZRO02SZG7JVR5YX","1","4","4","3","2","7180","2017-09-14 14:25:58","3561"
"A3OXRDSUN9F10I","caus_thomas_all_v1","37FMASSAYCSJOHT3OG5C9XMB38FBIY","0","0","0","4","6","33743","2017-09-14 14:25:58","3562"
"AOB6ZJTDB416G","caus_thomas_all_v1","3E337GFOL997TZC51IAIFG9P5K1NG7","5","1","1","6","8","9747","2017-09-14 14:25:58","3563"
"A1UCM4T7TZDUAO","caus_thomas_all_v1","3EFVCAY5L3AWHUF23M62UWBA8HJ8J8","8","1","1","7","10","21387","2017-09-14 14:26:01","3564"
"A2KWPS7YQS4HPT","caus_thomas_all_v1","3IJXV6UZ1XK64OASKDR29CRFLUIIRI","8","1","1","7","9","11224","2017-09-14 14:26:03","3565"
"A2Q8WHCYTT58U7
","caus_thomas_all_v1","30LB5CDZNCB4ZKF3Q4W9PBTI8HK0ZY","8","3","3","8","5","7173","2017-09-14 14:26:04","3566"
"A308QGLJECJUFQ","caus_thomas_all_v1","31UV0MXWNQDHZ1CUN6EZ6BMJTCT5IR","0","3","3","2","7","22219","2017-09-14 14:26:04","3567"
"A25N0K40JAZTN1","caus_thomas_all_v1","388U7OUMF72VXTTCGN2W38RJZ010R5","4","2","2","3","1","12319","2017-09-14 14:26:04","3568"
"A25P1KW7TYHI8F","caus_thomas_all_v1","37U1UTWH9VNDFIYFBRFBWNX1IYD8R0","4","2","2","2","1","13042","2017-09-14 14:26:04","3569"
"AHEY8IUUKIYSR","caus_thomas_all_v1","3ZPPDN2SLVXOKJCKUD1PXCTTNF5E9I","4","0","0","10","10","28617","2017-09-14 14:26:05","3570"
"A2WRKUN3RCJYW8","caus_thomas_all_v1","3CFVK00FWLMF86KEDSLHQXSB6BYL61","0","1","1","7","5","16031","2017-09-14 14:26:06","3571"
"A12NNJKHIZP1TY","caus_thomas_all_v1","3C44YUNSI1Q4K0ERF7M2DKBNS7MDPJ","8","3","3","10","5","9327","2017-09-14 14:26:06","3572"
"A24Q3ZTP8ZNHP6","caus_thomas_all_v1","3IXQG4FA2TZQDG00KMZZW4N8KISB9F","8","2","2","3","9","21574","2017-09-14 14:26:08","3573"
"A2VU177LZZVE5S","caus_thomas_all_v1","3I0BTBYZAXM4UU5YUIUQB4KG2NG0Y7","0","1","1","7","9","39206","2017-09-14 14:26:10","3574"
"A14OSI1BNJI40A","caus_thomas_all_v1","34Q075JO1XE74OUVITNHXH96V2710A","4","0","0","3","8","34323","2017-09-14 14:26:10","3575"
"A2Q8WHCYTT58U7
","caus_thomas_all_v1","30LB5CDZNCB4ZKF3Q4W9PBTI8HK0ZY","8","4","4","1","7","6011","2017-09-14 14:26:11","3576"
"A3OXRDSUN9F10I","caus_thomas_all_v1","37FMASSAYCSJOHT3OG5C9XMB38FBIY","0","1","1","2","3","16062","2017-09-14 14:26:15","3577"
"A3N3F77POSIH8J
","caus_thomas_all_v1","3TPZPLC3M0D628CUMIGQ0BPB1UX3PB","4","1","1","1","8","18342","2017-09-14 14:26:15","3578"
"A12NNJKHIZP1TY","caus_thomas_all_v1","3C44YUNSI1Q4K0ERF7M2DKBNS7MDPJ","8","4","4","5","3","8351","2017-09-14 14:26:15","3579"
"A25N0K40JAZTN1","caus_thomas_all_v1","388U7OUMF72VXTTCGN2W38RJZ010R5","4","3","3","7","5","11734","2017-09-14 14:26:17","3580"
"A14OSI1BNJI40A","caus_thomas_all_v1","34Q075JO1XE74OUVITNHXH96V2710A","4","1","1","2","4","5666","2017-09-14 14:26:17","3581"
"A25P1KW7TYHI8F","caus_thomas_all_v1","37U1UTWH9VNDFIYFBRFBWNX1IYD8R0","7","3","3","1","8","13286","2017-09-14 14:26:18","3582"
"AOB6ZJTDB416G","caus_thomas_all_v1","3E337GFOL997TZC51IAIFG9P5K1NG7","0","2","2","10","9","20696","2017-09-14 14:26:20","3583"
"A2KWPS7YQS4HPT","caus_thomas_all_v1","3IJXV6UZ1XK64OASKDR29CRFLUIIRI","6","2","2","5","8","15873","2017-09-14 14:26:20","3584"
"A1UCM4T7TZDUAO","caus_thomas_all_v1","3EFVCAY5L3AWHUF23M62UWBA8HJ8J8","4","2","2","6","5","18764","2017-09-14 14:26:21","3585"
"A24Q3ZTP8ZNHP6","caus_thomas_all_v1","3IXQG4FA2TZQDG00KMZZW4N8KISB9F","8","3","3","2","4","12871","2017-09-14 14:26:22","3586"
"A2WRKUN3RCJYW8","caus_thomas_all_v1","3CFVK00FWLMF86KEDSLHQXSB6BYL61","0","2","2","10","10","16062","2017-09-14 14:26:23","3587"
"A14OSI1BNJI40A","caus_thomas_all_v1","34Q075JO1XE74OUVITNHXH96V2710A","4","2","2","8","7","4718","2017-09-14 14:26:23","3588"
"A2VU177LZZVE5S","caus_thomas_all_v1","3I0BTBYZAXM4UU5YUIUQB4KG2NG0Y7","0","2","2","1","1","12564","2017-09-14 14:26:24","3589"
"A2KWPS7YQS4HPT","caus_thomas_all_v1","3IJXV6UZ1XK64OASKDR29CRFLUIIRI","5","3","3","1","7","3860","2017-09-14 14:26:25","3590"
"A308QGLJECJUFQ","caus_thomas_all_v1","31UV0MXWNQDHZ1CUN6EZ6BMJTCT5IR","0","4","4","7","8","21058","2017-09-14 14:26:26","3591"
"A14OSI1BNJI40A","caus_thomas_all_v1","34Q075JO1XE74OUVITNHXH96V2710A","4","3","3","4","9","3267","2017-09-14 14:26:27","3592"
"A3OXRDSUN9F10I","caus_thomas_all_v1","37FMASSAYCSJOHT3OG5C9XMB38FBIY","0","2","2","10","1","11471","2017-09-14 14:26:27","3593"
"A3N3F77POSIH8J
","caus_thomas_all_v1","3TPZPLC3M0D628CUMIGQ0BPB1UX3PB","4","2","2","9","9","12768","2017-09-14 14:26:29","3594"
"A25P1KW7TYHI8F","caus_thomas_all_v1","37U1UTWH9VNDFIYFBRFBWNX1IYD8R0","4","4","4","7","6","10699","2017-09-14 14:26:30","3595"
"AHEY8IUUKIYSR","caus_thomas_all_v1","3ZPPDN2SLVXOKJCKUD1PXCTTNF5E9I","8","1","1","1","7","24159","2017-09-14 14:26:30","3596"
"A14OSI1BNJI40A","caus_thomas_all_v1","34Q075JO1XE74OUVITNHXH96V2710A","4","4","4","6","3","2960","2017-09-14 14:26:31","3597"
"AOB6ZJTDB416G","caus_thomas_all_v1","3E337GFOL997TZC51IAIFG9P5K1NG7","8","3","3","9","10","10465","2017-09-14 14:26:31","3598"
"A24Q3ZTP8ZNHP6","caus_thomas_all_v1","3IXQG4FA2TZQDG00KMZZW4N8KISB9F","8","4","4","8","8","8688","2017-09-14 14:26:32","3599"
"A25N0K40JAZTN1","caus_thomas_all_v1","388U7OUMF72VXTTCGN2W38RJZ010R5","4","4","4","9","2","16338","2017-09-14 14:26:34","3600"
"A36XEP5H6KBQIB","caus_thomas_all_v1","36V4Q8R5ZK1SO6LJSD0UWFOR6H0QM5","4","0","0","5","1","33528","2017-09-14 14:26:34","3601"
"ABQ1B3GQ8AOTH","caus_thomas_all_v1","3VHHR074H3IYC6YJW2Q9WBS71MIL70","5","1","1","6","4","36977","2017-09-14 14:26:35","3602"
"ASIULWA5R4JYU","caus_thomas_all_v1","3K3R2QNK8B459F96KDGU1UFW93YU9E","0","0","0","10","7","24072","2017-09-14 14:26:35","3603"
"A2WRKUN3RCJYW8","caus_thomas_all_v1","3CFVK00FWLMF86KEDSLHQXSB6BYL61","0","3","3","1","3","12478","2017-09-14 14:26:36","3604"
"A1UCM4T7TZDUAO","caus_thomas_all_v1","3EFVCAY5L3AWHUF23M62UWBA8HJ8J8","7","3","3","2","8","14801","2017-09-14 14:26:37","3605"
"A2Z96TK65BB7LC
","caus_thomas_all_v1","3MAOD8E57QBIFL7VQSAM329K8AWXN8","7","1","1","3","6","92839","2017-09-14 14:26:38","3606"
"A2VU177LZZVE5S","caus_thomas_all_v1","3I0BTBYZAXM4UU5YUIUQB4KG2NG0Y7","0","3","3","9","5","13983","2017-09-14 14:26:39","3607"
"A2KWPS7YQS4HPT","caus_thomas_all_v1","3IJXV6UZ1XK64OASKDR29CRFLUIIRI","7","4","4","8","6","13523","2017-09-14 14:26:39","3608"
"A3OXRDSUN9F10I","caus_thomas_all_v1","37FMASSAYCSJOHT3OG5C9XMB38FBIY","0","3","3","5","7","12382","2017-09-14 14:26:41","3609"
"A115UFR6VA6OM1","caus_thomas_all_v1","3LEIZ60CDJ0MVE3GQ0F2IMUBBLDZ98","4","0","0","7","4","23661","2017-09-14 14:26:41","3610"
"AOB6ZJTDB416G","caus_thomas_all_v1","3E337GFOL997TZC51IAIFG9P5K1NG7","8","4","4","3","6","10000","2017-09-14 14:26:42","3611"
"A3HBUS4MN7GUR3","caus_thomas_all_v1","3WZ36BJEV3H9XV9EIS4GN4OKEPVBTF","2","0","0","9","6","25761","2017-09-14 14:26:42","3612"
"A36XEP5H6KBQIB","caus_thomas_all_v1","36V4Q8R5ZK1SO6LJSD0UWFOR6H0QM5","4","1","1","8","2","6769","2017-09-14 14:26:42","3613"
"ASIULWA5R4JYU","caus_thomas_all_v1","3K3R2QNK8B459F96KDGU1UFW93YU9E","4","1","1","3","2","9370","2017-09-14 14:26:46","3614"
"AHEY8IUUKIYSR","caus_thomas_all_v1","3ZPPDN2SLVXOKJCKUD1PXCTTNF5E9I","6","2","2","7","8","14654","2017-09-14 14:26:46","3615"
"A3N3F77POSIH8J
","caus_thomas_all_v1","3TPZPLC3M0D628CUMIGQ0BPB1UX3PB","2","3","3","2","3","16840","2017-09-14 14:26:47","3616"
"A1KRYIRDA2OOWC","caus_thomas_all_v1","37TRT2X24QSFJSD96YQCLY1BGN4BJA","1","0","0","1","4","31112","2017-09-14 14:26:47","3617"
"A3OXRDSUN9F10I","caus_thomas_all_v1","37FMASSAYCSJOHT3OG5C9XMB38FBIY","0","4","4","8","10","6458","2017-09-14 14:26:48","3618"
"ABQ1B3GQ8AOTH","caus_thomas_all_v1","3VHHR074H3IYC6YJW2Q9WBS71MIL70","6","2","2","8","9","12526","2017-09-14 14:26:48","3619"
"A2JMDJEEHTOSA3","caus_thomas_all_v1","386CSBG1OZNQZ30R5XTD7JR5GHLQ6V","2","0","0","4","2","20049","2017-09-14 14:26:49","3620"
"A1UCM4T7TZDUAO","caus_thomas_all_v1","3EFVCAY5L3AWHUF23M62UWBA8HJ8J8","4","4","4","8","1","11222","2017-09-14 14:26:49","3621"
"A2WRKUN3RCJYW8","caus_thomas_all_v1","3CFVK00FWLMF86KEDSLHQXSB6BYL61","0","4","4","9","6","11825","2017-09-14 14:26:49","3622"
"A36XEP5H6KBQIB","caus_thomas_all_v1","36V4Q8R5ZK1SO6LJSD0UWFOR6H0QM5","0","2","2","10","7","6112","2017-09-14 14:26:49","3623"
"A36XEP5H6KBQIB","caus_thomas_all_v1","36V4Q8R5ZK1SO6LJSD0UWFOR6H0QM5","4","3","3","1","6","2784","2017-09-14 14:26:53","3624"
"AOY7MRZ8IJNAZ","caus_thomas_all_v1","3LYA37P8IQOAUCJROJQOMD1OVC4BK9","3","0","0","4","2","63551","2017-09-14 14:26:53","3625"
"A1KRYIRDA2OOWC","caus_thomas_all_v1","37TRT2X24QSFJSD96YQCLY1BGN4BJA","3","1","1","3","2","5896","2017-09-14 14:26:54","3626"
"ASIULWA5R4JYU","caus_thomas_all_v1","3K3R2QNK8B459F96KDGU1UFW93YU9E","6","2","2","5","8","7900","2017-09-14 14:26:54","3627"
"A8TK3JACM5EM","caus_thomas_all_v1","3C8HJ7UOP7V12YMAF9J7N80VBKKZM7","0","0","0","6","4","33706","2017-09-14 14:26:55","3628"
"A115UFR6VA6OM1","caus_thomas_all_v1","3LEIZ60CDJ0MVE3GQ0F2IMUBBLDZ98","7","1","1","9","10","13440","2017-09-14 14:26:55","3629"
"A3N3F77POSIH8J
","caus_thomas_all_v1","3TPZPLC3M0D628CUMIGQ0BPB1UX3PB","1","4","4","4","1","8150","2017-09-14 14:26:56","3630"
"A2JMDJEEHTOSA3","caus_thomas_all_v1","386CSBG1OZNQZ30R5XTD7JR5GHLQ6V","2","1","1","6","6","6481","2017-09-14 14:26:56","3631"
"A2VU177LZZVE5S","caus_thomas_all_v1","3I0BTBYZAXM4UU5YUIUQB4KG2NG0Y7","0","4","4","4","2","16623","2017-09-14 14:26:57","3632"
"AAR5VQ8QIO5PC","caus_thomas_all_v1","3SNLUL3WO4O0AHAF9AJK636R9XGLU3","0","0","0","5","5","41318","2017-09-14 14:26:57","3633"
"ABQ1B3GQ8AOTH","caus_thomas_all_v1","3VHHR074H3IYC6YJW2Q9WBS71MIL70","7","3","3","10","7","9127","2017-09-14 14:26:58","3634"
"ASIULWA5R4JYU","caus_thomas_all_v1","3K3R2QNK8B459F96KDGU1UFW93YU9E","6","3","3","7","4","3299","2017-09-14 14:26:59","3635"
"A36XEP5H6KBQIB","caus_thomas_all_v1","36V4Q8R5ZK1SO6LJSD0UWFOR6H0QM5","4","4","4","4","4","6516","2017-09-14 14:27:01","3636"
"AHEY8IUUKIYSR","caus_thomas_all_v1","3ZPPDN2SLVXOKJCKUD1PXCTTNF5E9I","6","3","3","9","3","13613","2017-09-14 14:27:01","3637"
"A1KRYIRDA2OOWC","caus_thomas_all_v1","37TRT2X24QSFJSD96YQCLY1BGN4BJA","8","2","2","10","10","7298","2017-09-14 14:27:02","3638"
"A2JMDJEEHTOSA3","caus_thomas_all_v1","386CSBG1OZNQZ30R5XTD7JR5GHLQ6V","0","2","2","2","5","6515","2017-09-14 14:27:04","3639"
"ASIULWA5R4JYU","caus_thomas_all_v1","3K3R2QNK8B459F96KDGU1UFW93YU9E","7","4","4","6","9","5249","2017-09-14 14:27:05","3640"
"A8TK3JACM5EM","caus_thomas_all_v1","3C8HJ7UOP7V12YMAF9J7N80VBKKZM7","0","1","1","8","6","9598","2017-09-14 14:27:05","3641"
"A3HBUS4MN7GUR3","caus_thomas_all_v1","3WZ36BJEV3H9XV9EIS4GN4OKEPVBTF","4","1","1","1","4","24498","2017-09-14 14:27:08","3642"
"ABQ1B3GQ8AOTH","caus_thomas_all_v1","3VHHR074H3IYC6YJW2Q9WBS71MIL70","1","4","4","1","5","8422","2017-09-14 14:27:08","3643"
"A115UFR6VA6OM1","caus_thomas_all_v1","3LEIZ60CDJ0MVE3GQ0F2IMUBBLDZ98","6","2","2","6","2","12068","2017-09-14 14:27:08","3644"
"A2MW5S0XS0D5MN","caus_thomas_all_v1","3GNA64GUZE5UGZ0D0EJ8FDD5KMAQ5F","2","0","0","9","3","66418","2017-09-14 14:27:10","3645"
"AHEY8IUUKIYSR","caus_thomas_all_v1","3ZPPDN2SLVXOKJCKUD1PXCTTNF5E9I","6","4","4","2","2","9852","2017-09-14 14:27:12","3646"
"A2JMDJEEHTOSA3","caus_thomas_all_v1","386CSBG1OZNQZ30R5XTD7JR5GHLQ6V","6","3","3","9","4","8354","2017-09-14 14:27:13","3647"
"A1KRYIRDA2OOWC","caus_thomas_all_v1","37TRT2X24QSFJSD96YQCLY1BGN4BJA","1","3","3","2","5","10598","2017-09-14 14:27:14","3648"
"A32J0WKL5KD8C0","caus_thomas_all_v1","3VSOLARPKBALALWN5TKTELPWWQF39G","5","0","0","3","3","151611","2017-09-14 14:27:14","3649"
"A3HBUS4MN7GUR3","caus_thomas_all_v1","3WZ36BJEV3H9XV9EIS4GN4OKEPVBTF","5","2","2","6","8","5621","2017-09-14 14:27:14","3650"
"AS4DRUYZ5E2X7","caus_thomas_all_v1","30X31N5D63R3ZLR7NEZUIO8SUOWASU","7","0","0","7","10","28333","2017-09-14 14:27:16","3651"
"A31Q4HFUPE2DXG","caus_thomas_all_v1","3FDJT1UU74985W2IN9ZBJR1WLGI5K2","6","0","0","3","7","86393","2017-09-14 14:27:17","3652"
"A3HBUS4MN7GUR3","caus_thomas_all_v1","3WZ36BJEV3H9XV9EIS4GN4OKEPVBTF","3","3","3","10","5","1796","2017-09-14 14:27:17","3653"
"A1CGGZRO2JUQUG","caus_thomas_all_v1","3AWETUDC92TF6FWJUULFVFTEUB1IZB","1","0","0","5","9","52301","2017-09-14 14:27:17","3654"
"A1T1CQSJWP9ZP3","caus_thomas_all_v1","3M68NM076H8QB4FRICIDC91AC3N6RC","4","0","0","9","4","19856","2017-09-14 14:27:18","3655"
"A8TK3JACM5EM","caus_thomas_all_v1","3C8HJ7UOP7V12YMAF9J7N80VBKKZM7","0","2","2","7","1","11510","2017-09-14 14:27:18","3656"
"A2JMDJEEHTOSA3","caus_thomas_all_v1","386CSBG1OZNQZ30R5XTD7JR5GHLQ6V","-1","4","4","5","8","5812","2017-09-14 14:27:20","3657"
"A1KRYIRDA2OOWC","caus_thomas_all_v1","37TRT2X24QSFJSD96YQCLY1BGN4BJA","6","4","4","9","9","5420","2017-09-14 14:27:20","3658"
"AAR5VQ8QIO5PC","caus_thomas_all_v1","3SNLUL3WO4O0AHAF9AJK636R9XGLU3","0","1","1","9","6","23059","2017-09-14 14:27:20","3659"
"A3HBUS4MN7GUR3","caus_thomas_all_v1","3WZ36BJEV3H9XV9EIS4GN4OKEPVBTF","2","4","4","2","7","3443","2017-09-14 14:27:22","3660"
"A115UFR6VA6OM1","caus_thomas_all_v1","3LEIZ60CDJ0MVE3GQ0F2IMUBBLDZ98","3","3","3","8","1","13464","2017-09-14 14:27:23","3661"
"AJNQ2PBD07FKE","caus_thomas_all_v1","30OG32W0SUC99LGEVNKUFDODS4MENH","7","0","0","2","9","20116","2017-09-14 14:27:23","3662"
"A31Q4HFUPE2DXG","caus_thomas_all_v1","3FDJT1UU74985W2IN9ZBJR1WLGI5K2","6","1","1","7","9","5765","2017-09-14 14:27:23","3663"
"A1T1CQSJWP9ZP3","caus_thomas_all_v1","3M68NM076H8QB4FRICIDC91AC3N6RC","4","1","1","8","5","7162","2017-09-14 14:27:26","3664"
"A3TMFO1A5U4AEL","caus_thomas_all_v1","3L4D84MILZTPA5GV6Q087949B09HJW","5","0","0","1","4","70275","2017-09-14 14:27:27","3665"
"AOY7MRZ8IJNAZ","caus_thomas_all_v1","3LYA37P8IQOAUCJROJQOMD1OVC4BK9","4","1","1","8","6","32880","2017-09-14 14:27:27","3666"
"A31Q4HFUPE2DXG","caus_thomas_all_v1","3FDJT1UU74985W2IN9ZBJR1WLGI5K2","4","2","2","4","6","4819","2017-09-14 14:27:29","3667"
"A115UFR6VA6OM1","caus_thomas_all_v1","3LEIZ60CDJ0MVE3GQ0F2IMUBBLDZ98","7","4","4","1","9","6999","2017-09-14 14:27:31","3668"
"A1VSHM4NLZ705D","caus_thomas_all_v1","3STRJBFXOWSAQYD8O5H9M77A1J4KT8","8","0","0","3","10","31862","2017-09-14 14:27:32","3669"
"A3AY059NMP3VIZ","caus_thomas_all_v1","3SUWZRL0MYE120AMW6YDD22RXEXE67","0","0","0","4","7","118365","2017-09-14 14:27:32","3670"
"A31Q4HFUPE2DXG","caus_thomas_all_v1","3FDJT1UU74985W2IN9ZBJR1WLGI5K2","0","3","3","9","2","3904","2017-09-14 14:27:34","3671"
"AAR5VQ8QIO5PC","caus_thomas_all_v1","3SNLUL3WO4O0AHAF9AJK636R9XGLU3","0","2","2","2","4","12376","2017-09-14 14:27:36","3672"
"A1T1CQSJWP9ZP3","caus_thomas_all_v1","3M68NM076H8QB4FRICIDC91AC3N6RC","4","2","2","4","2","8942","2017-09-14 14:27:36","3673"
"AJNQ2PBD07FKE","caus_thomas_all_v1","30OG32W0SUC99LGEVNKUFDODS4MENH","2","1","1","7","1","14069","2017-09-14 14:27:38","3674"
"A1CGGZRO2JUQUG","caus_thomas_all_v1","3AWETUDC92TF6FWJUULFVFTEUB1IZB","6","1","1","8","10","21274","2017-09-14 14:27:39","3675"
"AS4DRUYZ5E2X7","caus_thomas_all_v1","30X31N5D63R3ZLR7NEZUIO8SUOWASU","2","1","1","1","2","22617","2017-09-14 14:27:40","3676"
"A25VHX1PUAHR4T","caus_thomas_all_v1","3TR2532VIPV9DGWEA794AIFJ2MTJ6X","0","0","0","10","9","57188","2017-09-14 14:27:40","3677"
"AYPRRGPMODOAX","caus_thomas_all_v1","34S6N1K2ZVKV5V4V9BCLNOH1FPEHLY","4","0","0","2","3","67060","2017-09-14 14:27:40","3678"
"A31Q4HFUPE2DXG","caus_thomas_all_v1","3FDJT1UU74985W2IN9ZBJR1WLGI5K2","4","4","4","2","4","7509","2017-09-14 14:27:43","3679"
"AOY7MRZ8IJNAZ","caus_thomas_all_v1","3LYA37P8IQOAUCJROJQOMD1OVC4BK9","4","2","2","5","3","17899","2017-09-14 14:27:46","3680"
"AJNQ2PBD07FKE","caus_thomas_all_v1","30OG32W0SUC99LGEVNKUFDODS4MENH","2","2","2","9","3","8234","2017-09-14 14:27:47","3681"
"A2I9PUZT19ZBO8","caus_thomas_all_v1","3WOKGM4L71HS0G1WOVLS9DMEODHO0K","4","0","0","5","6","52971","2017-09-14 14:27:48","3682"
"AS4DRUYZ5E2X7","caus_thomas_all_v1","30X31N5D63R3ZLR7NEZUIO8SUOWASU","3","2","2","4","4","8371","2017-09-14 14:27:49","3683"
"A2MW5S0XS0D5MN","caus_thomas_all_v1","3GNA64GUZE5UGZ0D0EJ8FDD5KMAQ5F","6","1","1","5","10","40340","2017-09-14 14:27:51","3684"
"A1CGGZRO2JUQUG","caus_thomas_all_v1","3AWETUDC92TF6FWJUULFVFTEUB1IZB","8","2","2","9","2","11110","2017-09-14 14:27:52","3685"
"AAR5VQ8QIO5PC","caus_thomas_all_v1","3SNLUL3WO4O0AHAF9AJK636R9XGLU3","0","3","3","8","1","15265","2017-09-14 14:27:52","3686"
"AV15YFBYL71S6","caus_thomas_all_v1","37QW5D2ZRGNPGXYSQGFGMX2X40W8SO","6","0","0","4","9","132887","2017-09-14 14:27:54","3687"
"AJNQ2PBD07FKE","caus_thomas_all_v1","30OG32W0SUC99LGEVNKUFDODS4MENH","4","3","3","10","4","7883","2017-09-14 14:27:56","3688"
"AY4LR4O9XWY56","caus_thomas_all_v1","33L7PJKHCGZQVXB7FGK6W2YJ6JAT8Y","4","0","0","3","3","34956","2017-09-14 14:27:58","3689"
"AHI4R9YE0SF9E","caus_thomas_all_v1","36U2A8VAG1067KC2YB48UOZPGLMYKB","8","0","0","8","10","34918","2017-09-14 14:28:00","3690"
"AYPRRGPMODOAX","caus_thomas_all_v1","34S6N1K2ZVKV5V4V9BCLNOH1FPEHLY","3","1","1","4","7","19073","2017-09-14 14:28:00","3691"
"AS4DRUYZ5E2X7","caus_thomas_all_v1","30X31N5D63R3ZLR7NEZUIO8SUOWASU","4","3","3","6","7","11285","2017-09-14 14:28:02","3692"
"AJNQ2PBD07FKE","caus_thomas_all_v1","30OG32W0SUC99LGEVNKUFDODS4MENH","4","4","4","8","8","5990","2017-09-14 14:28:03","3693"
"AAR5VQ8QIO5PC","caus_thomas_all_v1","3SNLUL3WO4O0AHAF9AJK636R9XGLU3","0","4","4","6","7","11400","2017-09-14 14:28:03","3694"
"A25VHX1PUAHR4T","caus_thomas_all_v1","3TR2532VIPV9DGWEA794AIFJ2MTJ6X","8","1","1","8","10","22286","2017-09-14 14:28:03","3695"
"A1CGGZRO2JUQUG","caus_thomas_all_v1","3AWETUDC92TF6FWJUULFVFTEUB1IZB","5","3","3","6","7","11912","2017-09-14 14:28:04","3696"
"AV15YFBYL71S6","caus_thomas_all_v1","37QW5D2ZRGNPGXYSQGFGMX2X40W8SO","7","1","1","5","10","10609","2017-09-14 14:28:06","3697"
"AS4DRUYZ5E2X7","caus_thomas_all_v1","30X31N5D63R3ZLR7NEZUIO8SUOWASU","4","4","4","9","5","4263","2017-09-14 14:28:07","3698"
"A3TMFO1A5U4AEL","caus_thomas_all_v1","3L4D84MILZTPA5GV6Q087949B09HJW","8","1","1","7","10","39542","2017-09-14 14:28:07","3699"
"A1VSHM4NLZ705D","caus_thomas_all_v1","3STRJBFXOWSAQYD8O5H9M77A1J4KT8","4","1","1","8","7","35933","2017-09-14 14:28:09","3700"
"AY4LR4O9XWY56","caus_thomas_all_v1","33L7PJKHCGZQVXB7FGK6W2YJ6JAT8Y","4","1","1","6","7","9556","2017-09-14 14:28:09","3701"
"A1VBINGZKSCKL0","caus_thomas_all_v1","3JMSRU9HQIVMHQPNXE6LPUIQE7OEVY","0","0","0","5","3","34400","2017-09-14 14:28:09","3702"
"A2I9PUZT19ZBO8","caus_thomas_all_v1","3WOKGM4L71HS0G1WOVLS9DMEODHO0K","4","1","1","6","2","21224","2017-09-14 14:28:10","3703"
"A32J0WKL5KD8C0","caus_thomas_all_v1","3VSOLARPKBALALWN5TKTELPWWQF39G","5","1","1","5","1","56275","2017-09-14 14:28:11","3704"
"A3AY059NMP3VIZ","caus_thomas_all_v1","3SUWZRL0MYE120AMW6YDD22RXEXE67","0","1","1","2","2","38671","2017-09-14 14:28:12","3705"
"AYPRRGPMODOAX","caus_thomas_all_v1","34S6N1K2ZVKV5V4V9BCLNOH1FPEHLY","6","2","2","1","6","10632","2017-09-14 14:28:12","3706"
"AOY7MRZ8IJNAZ","caus_thomas_all_v1","3LYA37P8IQOAUCJROJQOMD1OVC4BK9","5","3","3","3","9","25376","2017-09-14 14:28:13","3707"
"AHI4R9YE0SF9E","caus_thomas_all_v1","36U2A8VAG1067KC2YB48UOZPGLMYKB","2","1","1","9","5","11845","2017-09-14 14:28:13","3708"
"AV15YFBYL71S6","caus_thomas_all_v1","37QW5D2ZRGNPGXYSQGFGMX2X40W8SO","3","2","2","8","8","7443","2017-09-14 14:28:14","3709"
"A3QMWLH7A7NSVN","caus_thomas_all_v1","3VD82FOHKQPCU8WC0BEC4EOFX2EOCD","0","0","0","10","5","23536","2017-09-14 14:28:16","3710"
"A2MW5S0XS0D5MN","caus_thomas_all_v1","3GNA64GUZE5UGZ0D0EJ8FDD5KMAQ5F","3","2","2","8","6","25839","2017-09-14 14:28:18","3711"
"A1CGGZRO2JUQUG","caus_thomas_all_v1","3AWETUDC92TF6FWJUULFVFTEUB1IZB","5","4","4","7","6","15530","2017-09-14 14:28:21","3712"
"A8TK3JACM5EM","caus_thomas_all_v1","3C8HJ7UOP7V12YMAF9J7N80VBKKZM7","0","3","3","9","5","62061","2017-09-14 14:28:21","3713"
"A25VHX1PUAHR4T","caus_thomas_all_v1","3TR2532VIPV9DGWEA794AIFJ2MTJ6X","0","2","2","7","8","17089","2017-09-14 14:28:21","3714"
"AY4LR4O9XWY56","caus_thomas_all_v1","33L7PJKHCGZQVXB7FGK6W2YJ6JAT8Y","0","2","2","10","4","11787","2017-09-14 14:28:22","3715"
"AV15YFBYL71S6","caus_thomas_all_v1","37QW5D2ZRGNPGXYSQGFGMX2X40W8SO","2","3","3","10","3","8014","2017-09-14 14:28:24","3716"
"A1VSHM4NLZ705D","caus_thomas_all_v1","3STRJBFXOWSAQYD8O5H9M77A1J4KT8","4","2","2","9","4","13863","2017-09-14 14:28:24","3717"
"AYPRRGPMODOAX","caus_thomas_all_v1","34S6N1K2ZVKV5V4V9BCLNOH1FPEHLY","2","3","3","8","5","12299","2017-09-14 14:28:25","3718"
"A2I9PUZT19ZBO8","caus_thomas_all_v1","3WOKGM4L71HS0G1WOVLS9DMEODHO0K","4","2","2","3","1","17524","2017-09-14 14:28:28","3719"
"A32J0WKL5KD8C0","caus_thomas_all_v1","3VSOLARPKBALALWN5TKTELPWWQF39G","5","2","2","8","7","18282","2017-09-14 14:28:30","3720"
"AOY7MRZ8IJNAZ","caus_thomas_all_v1","3LYA37P8IQOAUCJROJQOMD1OVC4BK9","5","4","4","6","8","17143","2017-09-14 14:28:31","3721"
"A8TK3JACM5EM","caus_thomas_all_v1","3C8HJ7UOP7V12YMAF9J7N80VBKKZM7","0","4","4","1","3","8841","2017-09-14 14:28:31","3722"
"AY4LR4O9XWY56","caus_thomas_all_v1","33L7PJKHCGZQVXB7FGK6W2YJ6JAT8Y","4","3","3","2","8","8772","2017-09-14 14:28:32","3723"
"AHI4R9YE0SF9E","caus_thomas_all_v1","36U2A8VAG1067KC2YB48UOZPGLMYKB","7","2","2","1","6","17785","2017-09-14 14:28:32","3724"
"A3PDHDQZZKCTT5","caus_thomas_all_v1","3PXX5PX6LXZ4IZA5CSDZSZYSQ0ABAU","1","0","0","1","4","117100","2017-09-14 14:28:33","3725"
"A25VHX1PUAHR4T","caus_thomas_all_v1","3TR2532VIPV9DGWEA794AIFJ2MTJ6X","4","3","3","1","5","12886","2017-09-14 14:28:35","3726"
"A32J0WKL5KD8C0","caus_thomas_all_v1","3VSOLARPKBALALWN5TKTELPWWQF39G","5","3","3","2","5","4689","2017-09-14 14:28:36","3727"
"A1T1CQSJWP9ZP3","caus_thomas_all_v1","3M68NM076H8QB4FRICIDC91AC3N6RC","4","3","3","1","1","58812","2017-09-14 14:28:36","3728"
"A3QMWLH7A7NSVN","caus_thomas_all_v1","3VD82FOHKQPCU8WC0BEC4EOFX2EOCD","7","1","1","2","8","19194","2017-09-14 14:28:36","3729"
"AV15YFBYL71S6","caus_thomas_all_v1","37QW5D2ZRGNPGXYSQGFGMX2X40W8SO","1","4","4","9","7","12267","2017-09-14 14:28:37","3730"
"A1VSHM4NLZ705D","caus_thomas_all_v1","3STRJBFXOWSAQYD8O5H9M77A1J4KT8","4","3","3","10","6","12397","2017-09-14 14:28:37","3731"
"AY4LR4O9XWY56","caus_thomas_all_v1","33L7PJKHCGZQVXB7FGK6W2YJ6JAT8Y","4","4","4","7","1","6821","2017-09-14 14:28:39","3732"
"AYPRRGPMODOAX","caus_thomas_all_v1","34S6N1K2ZVKV5V4V9BCLNOH1FPEHLY","1","4","4","6","2","13154","2017-09-14 14:28:40","3733"
"A2MW5S0XS0D5MN","caus_thomas_all_v1","3GNA64GUZE5UGZ0D0EJ8FDD5KMAQ5F","4","3","3","7","8","20882","2017-09-14 14:28:40","3734"
"AHI4R9YE0SF9E","caus_thomas_all_v1","36U2A8VAG1067KC2YB48UOZPGLMYKB","6","3","3","3","7","7237","2017-09-14 14:28:40","3735"
"A32J0WKL5KD8C0","caus_thomas_all_v1","3VSOLARPKBALALWN5TKTELPWWQF39G","5","4","4","7","8","3683","2017-09-14 14:28:41","3736"
"A1T1CQSJWP9ZP3","caus_thomas_all_v1","3M68NM076H8QB4FRICIDC91AC3N6RC","4","4","4","6","6","4272","2017-09-14 14:28:41","3737"
"A1T2ETK8DWRTA1","caus_thomas_all_v1","3TUI152ZZBOVSHZUZRHWCN0O865Q1X","4","0","0","9","8","77064","2017-09-14 14:28:43","3738"
"A2I9PUZT19ZBO8","caus_thomas_all_v1","3WOKGM4L71HS0G1WOVLS9DMEODHO0K","4","3","3","8","9","15174","2017-09-14 14:28:45","3739"
"A1VBINGZKSCKL0","caus_thomas_all_v1","3JMSRU9HQIVMHQPNXE6LPUIQE7OEVY","0","1","1","2","7","35053","2017-09-14 14:28:45","3740"
"AHI4R9YE0SF9E","caus_thomas_all_v1","36U2A8VAG1067KC2YB48UOZPGLMYKB","5","4","4","4","9","4458","2017-09-14 14:28:46","3741"
"A3TMFO1A5U4AEL","caus_thomas_all_v1","3L4D84MILZTPA5GV6Q087949B09HJW","4","2","2","3","3","37582","2017-09-14 14:28:46","3742"
"A1VSHM4NLZ705D","caus_thomas_all_v1","3STRJBFXOWSAQYD8O5H9M77A1J4KT8","4","4","4","7","2","9047","2017-09-14 14:28:47","3743"
"a4tia0lj3z5wp","caus_thomas_all_v1","3SLE99ER0NE5J7IDOKTY9SP1ZLHBZV","0","0","0","10","10","47819","2017-09-14 14:28:48","3744"
"A25VHX1PUAHR4T","caus_thomas_all_v1","3TR2532VIPV9DGWEA794AIFJ2MTJ6X","4","4","4","2","3","11672","2017-09-14 14:28:48","3745"
"A3QMWLH7A7NSVN","caus_thomas_all_v1","3VD82FOHKQPCU8WC0BEC4EOFX2EOCD","4","2","2","6","6","11242","2017-09-14 14:28:49","3746"
"A2R2HMURPYBWWC","caus_thomas_all_v1","3DH6GAKTYYQ1WFBOYC7IH3N2KUYYZW","4","0","0","4","5","27310","2017-09-14 14:28:49","3747"
"A3PDHDQZZKCTT5","caus_thomas_all_v1","3PXX5PX6LXZ4IZA5CSDZSZYSQ0ABAU","1","1","1","6","1","16908","2017-09-14 14:28:51","3748"
"ACSS93E03ZUGX","caus_thomas_all_v1","3F1567XTNW6DHM2P34WPRTI76IT9QP","7","0","0","6","7","49664","2017-09-14 14:28:53","3749"
"A2I9PUZT19ZBO8","caus_thomas_all_v1","3WOKGM4L71HS0G1WOVLS9DMEODHO0K","4","4","4","9","10","12183","2017-09-14 14:28:58","3750"
"A3PDHDQZZKCTT5","caus_thomas_all_v1","3PXX5PX6LXZ4IZA5CSDZSZYSQ0ABAU","1","2","2","3","7","7586","2017-09-14 14:28:59","3751"
"A2R2HMURPYBWWC","caus_thomas_all_v1","3DH6GAKTYYQ1WFBOYC7IH3N2KUYYZW","6","1","1","7","8","10825","2017-09-14 14:29:01","3752"
"A3PDHDQZZKCTT5","caus_thomas_all_v1","3PXX5PX6LXZ4IZA5CSDZSZYSQ0ABAU","1","3","3","4","5","2925","2017-09-14 14:29:03","3753"
"A3AY059NMP3VIZ","caus_thomas_all_v1","3SUWZRL0MYE120AMW6YDD22RXEXE67","8","2","2","1","10","51449","2017-09-14 14:29:04","3754"
"A2MW5S0XS0D5MN","caus_thomas_all_v1","3GNA64GUZE5UGZ0D0EJ8FDD5KMAQ5F","8","4","4","1","7","23500","2017-09-14 14:29:04","3755"
"A2R2HMURPYBWWC","caus_thomas_all_v1","3DH6GAKTYYQ1WFBOYC7IH3N2KUYYZW","4","2","2","5","2","3350","2017-09-14 14:29:05","3756"
"A3PDHDQZZKCTT5","caus_thomas_all_v1","3PXX5PX6LXZ4IZA5CSDZSZYSQ0ABAU","1","4","4","7","3","2303","2017-09-14 14:29:07","3757"
"A1VBINGZKSCKL0","caus_thomas_all_v1","3JMSRU9HQIVMHQPNXE6LPUIQE7OEVY","0","2","2","6","6","20412","2017-09-14 14:29:07","3758"
"ACSS93E03ZUGX","caus_thomas_all_v1","3F1567XTNW6DHM2P34WPRTI76IT9QP","3","1","1","3","3","14304","2017-09-14 14:29:09","3759"
"A2X5ZE7AABXPCV","caus_thomas_all_v1","31QTRG6Q2TE7IB9IB39GQ5LOAVSYPC","4","0","0","5","2","51302","2017-09-14 14:29:09","3760"
"A1T2ETK8DWRTA1","caus_thomas_all_v1","3TUI152ZZBOVSHZUZRHWCN0O865Q1X","4","1","1","10","6","24638","2017-09-14 14:29:09","3761"
"A2R2HMURPYBWWC","caus_thomas_all_v1","3DH6GAKTYYQ1WFBOYC7IH3N2KUYYZW","6","3","3","9","10","4917","2017-09-14 14:29:11","3762"
"A3TMFO1A5U4AEL","caus_thomas_all_v1","3L4D84MILZTPA5GV6Q087949B09HJW","0","3","3","10","7","24151","2017-09-14 14:29:11","3763"
"A2R2HMURPYBWWC","caus_thomas_all_v1","3DH6GAKTYYQ1WFBOYC7IH3N2KUYYZW","5","4","4","8","1","3197","2017-09-14 14:29:15","3764"
"a4tia0lj3z5wp","caus_thomas_all_v1","3SLE99ER0NE5J7IDOKTY9SP1ZLHBZV","0","1","1","1","4","28110","2017-09-14 14:29:17","3765"
"A1VBINGZKSCKL0","caus_thomas_all_v1","3JMSRU9HQIVMHQPNXE6LPUIQE7OEVY","8","3","3","9","10","13222","2017-09-14 14:29:21","3766"
"A1FS8SBR4SDWYG","caus_thomas_all_v1","3QBD8R3Z21K9Z4JX7W8ULGCR5PXO40","2","0","0","8","7","17337","2017-09-14 14:29:23","3767"
"A3AY059NMP3VIZ","caus_thomas_all_v1","3SUWZRL0MYE120AMW6YDD22RXEXE67","0","3","3","3","5","21504","2017-09-14 14:29:27","3768"
"A1T2ETK8DWRTA1","caus_thomas_all_v1","3TUI152ZZBOVSHZUZRHWCN0O865Q1X","4","2","2","2","5","20132","2017-09-14 14:29:30","3769"
"A2QMHQXR8K4VJ2","caus_thomas_all_v1","3RKNTXVS3MZKX0PWXD3CKLSMG8T4AH","4","0","0","1","5","2137","2017-09-14 14:29:31","3770"
"A3KIZLHCD945UK
A3KIZLHCD945UK
A3KIZLHCD945UK
A3KIZLHCD945UK","caus_thomas_all_v1","33SA9F9TRXVZWFPSNOBHBW14LGQEW8","0","0","0","9","5","35773","2017-09-14 14:29:32","3771"
"A2QMHQXR8K4VJ2","caus_thomas_all_v1","3RKNTXVS3MZKX0PWXD3CKLSMG8T4AH","6","1","1","8","9","1559","2017-09-14 14:29:34","3772"
"a4tia0lj3z5wp","caus_thomas_all_v1","3SLE99ER0NE5J7IDOKTY9SP1ZLHBZV","0","2","2","8","5","16404","2017-09-14 14:29:34","3773"
"A2X5ZE7AABXPCV","caus_thomas_all_v1","31QTRG6Q2TE7IB9IB39GQ5LOAVSYPC","3","1","1","1","5","25204","2017-09-14 14:29:35","3774"
"A2QMHQXR8K4VJ2","caus_thomas_all_v1","3RKNTXVS3MZKX0PWXD3CKLSMG8T4AH","2","2","2","2","4","1917","2017-09-14 14:29:37","3775"
"A1VBINGZKSCKL0","caus_thomas_all_v1","3JMSRU9HQIVMHQPNXE6LPUIQE7OEVY","0","4","4","10","5","16060","2017-09-14 14:29:38","3776"
"A47N8CFWDAXNH","caus_thomas_all_v1","3L6L49WXW0YNRUDF2HCVCAC0OUT45C","6","0","0","2","7","68375","2017-09-14 14:29:39","3777"
"A3TMFO1A5U4AEL","caus_thomas_all_v1","3L4D84MILZTPA5GV6Q087949B09HJW","4","4","4","4","5","26913","2017-09-14 14:29:39","3778"
"A2QMHQXR8K4VJ2","caus_thomas_all_v1","3RKNTXVS3MZKX0PWXD3CKLSMG8T4AH","6","3","3","4","2","1529","2017-09-14 14:29:39","3779"
"A323RBOHUTRW53","caus_thomas_all_v1","3EWIJTFFVO86OPO7UHIW41S0KBBE06","8","0","0","5","7","29750","2017-09-14 14:29:40","3780"
"A3AY059NMP3VIZ","caus_thomas_all_v1","3SUWZRL0MYE120AMW6YDD22RXEXE67","0","4","4","6","4","12725","2017-09-14 14:29:40","3781"
"A2QMHQXR8K4VJ2","caus_thomas_all_v1","3RKNTXVS3MZKX0PWXD3CKLSMG8T4AH","4","4","4","10","3","1548","2017-09-14 14:29:42","3782"
"A2X5ZE7AABXPCV","caus_thomas_all_v1","31QTRG6Q2TE7IB9IB39GQ5LOAVSYPC","5","2","2","3","1","7193","2017-09-14 14:29:43","3783"
"A1FS8SBR4SDWYG","caus_thomas_all_v1","3QBD8R3Z21K9Z4JX7W8ULGCR5PXO40","4","1","1","10","9","20215","2017-09-14 14:29:45","3784"
"A2AS2Z9P0VV2NP","caus_thomas_all_v1","3KGTPGBS6XMU9VO7Z41FR77I3XPU2N","6","0","0","6","8","33580","2017-09-14 14:29:45","3785"
"A1T2ETK8DWRTA1","caus_thomas_all_v1","3TUI152ZZBOVSHZUZRHWCN0O865Q1X","4","3","3","1","9","14846","2017-09-14 14:29:46","3786"
"a4tia0lj3z5wp","caus_thomas_all_v1","3SLE99ER0NE5J7IDOKTY9SP1ZLHBZV","0","3","3","5","9","12557","2017-09-14 14:29:48","3787"
"ADBDQ7FTFHKCR","caus_thomas_all_v1","3K3R2QNK8B459F96KDGU1UFW93ZU9F","0","0","0","2","1","28727","2017-09-14 14:29:50","3788"
"AHPOOKYE7V04D","caus_thomas_all_v1","3X0H8UUIT1P06YUAOJVM0D5JM7ZSWN","4","0","0","10","5","13852","2017-09-14 14:29:50","3789"
"A323RBOHUTRW53","caus_thomas_all_v1","3EWIJTFFVO86OPO7UHIW41S0KBBE06","7","1","1","10","9","10937","2017-09-14 14:29:52","3790"
"A3KIZLHCD945UK
A3KIZLHCD945UK
A3KIZLHCD945UK
A3KIZLHCD945UK","caus_thomas_all_v1","33SA9F9TRXVZWFPSNOBHBW14LGQEW8","0","1","1","5","4","20816","2017-09-14 14:29:54","3791"
"A2X5ZE7AABXPCV","caus_thomas_all_v1","31QTRG6Q2TE7IB9IB39GQ5LOAVSYPC","0","3","3","2","9","10302","2017-09-14 14:29:55","3792"
"ALW83OCVEWDHC","caus_thomas_all_v1","3BXQMRHWKZZKGZS09MKZ6GLG926MU6","1","0","0","1","7","32454","2017-09-14 14:29:56","3793"
"ACSS93E03ZUGX","caus_thomas_all_v1","3F1567XTNW6DHM2P34WPRTI76IT9QP","3","2","2","2","8","46343","2017-09-14 14:29:56","3794"
"A1FS8SBR4SDWYG","caus_thomas_all_v1","3QBD8R3Z21K9Z4JX7W8ULGCR5PXO40","3","2","2","1","8","12335","2017-09-14 14:29:58","3795"
"A11D9XGV7Y2I89","caus_thomas_all_v1","3FE2ERCCZX9VOX5G5G0IOENMWLTOPR","6","0","0","8","10","33108","2017-09-14 14:29:58","3796"
"A323RBOHUTRW53","caus_thomas_all_v1","3EWIJTFFVO86OPO7UHIW41S0KBBE06","8","2","2","2","2","5260","2017-09-14 14:29:59","3797"
"AHPOOKYE7V04D","caus_thomas_all_v1","3X0H8UUIT1P06YUAOJVM0D5JM7ZSWN","6","1","1","2","2","8511","2017-09-14 14:29:59","3798"
"A1T2ETK8DWRTA1","caus_thomas_all_v1","3TUI152ZZBOVSHZUZRHWCN0O865Q1X","4","4","4","3","2","13140","2017-09-14 14:30:00","3799"
"A2AS2Z9P0VV2NP","caus_thomas_all_v1","3KGTPGBS6XMU9VO7Z41FR77I3XPU2N","1","1","1","3","2","14843","2017-09-14 14:30:01","3800"
"A2X5ZE7AABXPCV","caus_thomas_all_v1","31QTRG6Q2TE7IB9IB39GQ5LOAVSYPC","4","4","4","7","7","7304","2017-09-14 14:30:03","3801"
"ADBDQ7FTFHKCR","caus_thomas_all_v1","3K3R2QNK8B459F96KDGU1UFW93ZU9F","0","1","1","9","8","13192","2017-09-14 14:30:04","3802"
"A47N8CFWDAXNH","caus_thomas_all_v1","3L6L49WXW0YNRUDF2HCVCAC0OUT45C","6","1","1","7","6","25274","2017-09-14 14:30:05","3803"
"a4tia0lj3z5wp","caus_thomas_all_v1","3SLE99ER0NE5J7IDOKTY9SP1ZLHBZV","0","4","4","2","6","16493","2017-09-14 14:30:05","3804"
"ACSS93E03ZUGX","caus_thomas_all_v1","3F1567XTNW6DHM2P34WPRTI76IT9QP","2","3","3","7","1","9709","2017-09-14 14:30:07","3805"
"A2AS2Z9P0VV2NP","caus_thomas_all_v1","3KGTPGBS6XMU9VO7Z41FR77I3XPU2N","4","2","2","5","5","6262","2017-09-14 14:30:09","3806"
"A323RBOHUTRW53","caus_thomas_all_v1","3EWIJTFFVO86OPO7UHIW41S0KBBE06","7","3","3","4","8","9102","2017-09-14 14:30:09","3807"
"A3KIZLHCD945UK
A3KIZLHCD945UK
A3KIZLHCD945UK
A3KIZLHCD945UK","caus_thomas_all_v1","33SA9F9TRXVZWFPSNOBHBW14LGQEW8","0","2","2","2","3","14652","2017-09-14 14:30:09","3808"
"AHPOOKYE7V04D","caus_thomas_all_v1","3X0H8UUIT1P06YUAOJVM0D5JM7ZSWN","5","2","2","3","4","11133","2017-09-14 14:30:11","3809"
"A1FS8SBR4SDWYG","caus_thomas_all_v1","3QBD8R3Z21K9Z4JX7W8ULGCR5PXO40","2","3","3","7","1","12214","2017-09-14 14:30:11","3810"
"ACSS93E03ZUGX","caus_thomas_all_v1","3F1567XTNW6DHM2P34WPRTI76IT9QP","2","4","4","8","2","5489","2017-09-14 14:30:13","3811"
"AHPOOKYE7V04D","caus_thomas_all_v1","3X0H8UUIT1P06YUAOJVM0D5JM7ZSWN","5","3","3","4","1","2476","2017-09-14 14:30:15","3812"
"ALW83OCVEWDHC","caus_thomas_all_v1","3BXQMRHWKZZKGZS09MKZ6GLG926MU6","1","1","1","6","6","19605","2017-09-14 14:30:16","3813"
"A323RBOHUTRW53","caus_thomas_all_v1","3EWIJTFFVO86OPO7UHIW41S0KBBE06","6","4","4","7","4","7592","2017-09-14 14:30:17","3814"
"A2MF4QDKE40KVN","caus_thomas_all_v1","3PH3VY7DJLYX7AGOJBPUW62M9MZWZW","6","0","0","4","3","20069","2017-09-14 14:30:19","3815"
"A2AS2Z9P0VV2NP","caus_thomas_all_v1","3KGTPGBS6XMU9VO7Z41FR77I3XPU2N","6","3","3","7","1","9596","2017-09-14 14:30:19","3816"
"ADBDQ7FTFHKCR","caus_thomas_all_v1","3K3R2QNK8B459F96KDGU1UFW93ZU9F","8","2","2","5","10","14986","2017-09-14 14:30:20","3817"
"A47N8CFWDAXNH","caus_thomas_all_v1","3L6L49WXW0YNRUDF2HCVCAC0OUT45C","2","2","2","5","9","14199","2017-09-14 14:30:20","3818"
"A39E0PSS0T80W7","caus_thomas_all_v1","3RGU30DZTA9B2JH6XNGLZEC5SM8MJA","2","0","0","5","2","62126","2017-09-14 14:30:20","3819"
"A1FS8SBR4SDWYG","caus_thomas_all_v1","3QBD8R3Z21K9Z4JX7W8ULGCR5PXO40","1","4","4","9","3","7995","2017-09-14 14:30:20","3820"
"AHPOOKYE7V04D","caus_thomas_all_v1","3X0H8UUIT1P06YUAOJVM0D5JM7ZSWN","4","4","4","8","3","4745","2017-09-14 14:30:21","3821"
"A3KIZLHCD945UK
A3KIZLHCD945UK
A3KIZLHCD945UK
A3KIZLHCD945UK","caus_thomas_all_v1","33SA9F9TRXVZWFPSNOBHBW14LGQEW8","0","3","3","6","8","10687","2017-09-14 14:30:21","3822"
"A2EKCV8E75NJYW","caus_thomas_all_v1","3SLE99ER0NE5J7IDOKTY9SP1ZLHZBJ","2","0","0","2","8","34377","2017-09-14 14:30:21","3823"
"A240OTT1T85UGT","caus_thomas_all_v1","3U5JL4WY5KAWTDXP8NVQ4T3KHT24XL","3","0","0","9","8","28477","2017-09-14 14:30:22","3824"
"A11D9XGV7Y2I89","caus_thomas_all_v1","3FE2ERCCZX9VOX5G5G0IOENMWLTOPR","7","1","1","10","8","24735","2017-09-14 14:30:24","3825"
"ADBDQ7FTFHKCR","caus_thomas_all_v1","3K3R2QNK8B459F96KDGU1UFW93ZU9F","0","3","3","1","6","5400","2017-09-14 14:30:26","3826"
"ADBDQ7FTFHKCR","caus_thomas_all_v1","3K3R2QNK8B459F96KDGU1UFW93ZU9F","0","4","4","7","3","2690","2017-09-14 14:30:30","3827"
"A2AS2Z9P0VV2NP","caus_thomas_all_v1","3KGTPGBS6XMU9VO7Z41FR77I3XPU2N","1","4","4","2","4","10084","2017-09-14 14:30:30","3828"
"A26APJ1QNNFDH8
","caus_thomas_all_v1","3A7Y0R2P2OPMWVGABUIUAVS3ZQSJXR","0","0","0","4","2","42869","2017-09-14 14:30:31","3829"
"ALW83OCVEWDHC","caus_thomas_all_v1","3BXQMRHWKZZKGZS09MKZ6GLG926MU6","1","2","2","7","4","13765","2017-09-14 14:30:31","3830"
"A3KIZLHCD945UK
A3KIZLHCD945UK
A3KIZLHCD945UK
A3KIZLHCD945UK","caus_thomas_all_v1","33SA9F9TRXVZWFPSNOBHBW14LGQEW8","0","4","4","10","6","9324","2017-09-14 14:30:31","3831"
"A11D9XGV7Y2I89","caus_thomas_all_v1","3FE2ERCCZX9VOX5G5G0IOENMWLTOPR","-1","2","2","1","4","7286","2017-09-14 14:30:32","3832"
"A2MF4QDKE40KVN","caus_thomas_all_v1","3PH3VY7DJLYX7AGOJBPUW62M9MZWZW","3","1","1","3","2","13222","2017-09-14 14:30:33","3833"
"A240OTT1T85UGT","caus_thomas_all_v1","3U5JL4WY5KAWTDXP8NVQ4T3KHT24XL","7","1","1","1","9","10114","2017-09-14 14:30:33","3834"
"AGCGQD0XVR8YM","caus_thomas_all_v1","37W3JXSD669X2K6JNPNBIZTK3SVWY5","2","0","0","3","2","22238","2017-09-14 14:30:34","3835"
"A2EKCV8E75NJYW","caus_thomas_all_v1","3SLE99ER0NE5J7IDOKTY9SP1ZLHZBJ","1","1","1","10","3","14768","2017-09-14 14:30:37","3836"
"A11D9XGV7Y2I89","caus_thomas_all_v1","3FE2ERCCZX9VOX5G5G0IOENMWLTOPR","4","3","3","5","5","5027","2017-09-14 14:30:38","3837"
"A1ND4NNS6YX1SD","caus_thomas_all_v1","3R3YRB5GRF4JEYJBCJUUXPQGFLHUAU","0","0","0","5","9","53508","2017-09-14 14:30:40","3838"
"A2L5P4WPYG30UN","caus_thomas_all_v1","3IAS3U3I0FHFDWF1ZDKKMHFUECJ2BF","5","0","0","4","9","24960","2017-09-14 14:30:41","3839"
"A47N8CFWDAXNH","caus_thomas_all_v1","3L6L49WXW0YNRUDF2HCVCAC0OUT45C","4","3","3","6","5","20216","2017-09-14 14:30:41","3840"
"A2MF4QDKE40KVN","caus_thomas_all_v1","3PH3VY7DJLYX7AGOJBPUW62M9MZWZW","4","2","2","8","4","9180","2017-09-14 14:30:43","3841"
"A240OTT1T85UGT","caus_thomas_all_v1","3U5JL4WY5KAWTDXP8NVQ4T3KHT24XL","6","2","2","3","2","10014","2017-09-14 14:30:44","3842"
"ALW83OCVEWDHC","caus_thomas_all_v1","3BXQMRHWKZZKGZS09MKZ6GLG926MU6","1","3","3","4","10","13732","2017-09-14 14:30:46","3843"
"A11D9XGV7Y2I89","caus_thomas_all_v1","3FE2ERCCZX9VOX5G5G0IOENMWLTOPR","2","4","4","9","1","8007","2017-09-14 14:30:48","3844"
"A26NH1I9XOF79Q","caus_thomas_all_v1","3HYA4D452RK5QDRH4F6G576FTAB2FX","0","0","0","8","1","34395","2017-09-14 14:30:48","3845"
"AGCGQD0XVR8YM","caus_thomas_all_v1","37W3JXSD669X2K6JNPNBIZTK3SVWY5","5","1","1","7","1","13152","2017-09-14 14:30:48","3846"
"A2EKCV8E75NJYW","caus_thomas_all_v1","3SLE99ER0NE5J7IDOKTY9SP1ZLHZBJ","6","2","2","8","7","12137","2017-09-14 14:30:50","3847"
"A47N8CFWDAXNH","caus_thomas_all_v1","3L6L49WXW0YNRUDF2HCVCAC0OUT45C","4","4","4","1","2","10658","2017-09-14 14:30:53","3848"
"A240OTT1T85UGT","caus_thomas_all_v1","3U5JL4WY5KAWTDXP8NVQ4T3KHT24XL","3","3","3","7","3","7783","2017-09-14 14:30:53","3849"
"ALW83OCVEWDHC","caus_thomas_all_v1","3BXQMRHWKZZKGZS09MKZ6GLG926MU6","1","4","4","5","9","7295","2017-09-14 14:30:54","3850"
"A26APJ1QNNFDH8
","caus_thomas_all_v1","3A7Y0R2P2OPMWVGABUIUAVS3ZQSJXR","-1","1","1","8","7","22525","2017-09-14 14:30:54","3851"
"A3QMWLH7A7NSVN","caus_thomas_all_v1","3VD82FOHKQPCU8WC0BEC4EOFX2EOCD","4","3","3","3","3","125331","2017-09-14 14:30:55","3852"
"A2MF4QDKE40KVN","caus_thomas_all_v1","3PH3VY7DJLYX7AGOJBPUW62M9MZWZW","5","3","3","5","5","13031","2017-09-14 14:30:57","3853"
"AGCGQD0XVR8YM","caus_thomas_all_v1","37W3JXSD669X2K6JNPNBIZTK3SVWY5","5","2","2","4","3","8301","2017-09-14 14:30:57","3854"
"A240OTT1T85UGT","caus_thomas_all_v1","3U5JL4WY5KAWTDXP8NVQ4T3KHT24XL","7","4","4","2","6","4183","2017-09-14 14:30:58","3855"
"A2L5P4WPYG30UN","caus_thomas_all_v1","3IAS3U3I0FHFDWF1ZDKKMHFUECJ2BF","5","1","1","8","7","16524","2017-09-14 14:30:58","3856"
"A39E0PSS0T80W7","caus_thomas_all_v1","3RGU30DZTA9B2JH6XNGLZEC5SM8MJA","6","1","1","3","6","38294","2017-09-14 14:30:59","3857"
"A1ND4NNS6YX1SD","caus_thomas_all_v1","3R3YRB5GRF4JEYJBCJUUXPQGFLHUAU","0","1","1","7","4","19923","2017-09-14 14:31:01","3858"
"A26APJ1QNNFDH8
","caus_thomas_all_v1","3A7Y0R2P2OPMWVGABUIUAVS3ZQSJXR","0","2","2","1","10","5581","2017-09-14 14:31:01","3859"
"A2EKCV8E75NJYW","caus_thomas_all_v1","3SLE99ER0NE5J7IDOKTY9SP1ZLHZBJ","5","3","3","7","5","11578","2017-09-14 14:31:03","3860"
"A19V3A2N7GWL77
","caus_thomas_all_v1","30ZX6P7VF8WLVFDDN5X1K5Y7MHS2J0","8","0","0","10","5","24816","2017-09-14 14:31:05","3861"
"A2L5P4WPYG30UN","caus_thomas_all_v1","3IAS3U3I0FHFDWF1ZDKKMHFUECJ2BF","8","2","2","6","10","5461","2017-09-14 14:31:05","3862"
"A2MF4QDKE40KVN","caus_thomas_all_v1","3PH3VY7DJLYX7AGOJBPUW62M9MZWZW","1","4","4","1","1","7396","2017-09-14 14:31:05","3863"
"AGCGQD0XVR8YM","caus_thomas_all_v1","37W3JXSD669X2K6JNPNBIZTK3SVWY5","6","3","3","5","4","7251","2017-09-14 14:31:06","3864"
"A3QMWLH7A7NSVN","caus_thomas_all_v1","3VD82FOHKQPCU8WC0BEC4EOFX2EOCD","2","4","4","4","2","10310","2017-09-14 14:31:06","3865"
"A26NH1I9XOF79Q","caus_thomas_all_v1","3HYA4D452RK5QDRH4F6G576FTAB2FX","0","1","1","6","5","19335","2017-09-14 14:31:08","3866"
"A2L5P4WPYG30UN","caus_thomas_all_v1","3IAS3U3I0FHFDWF1ZDKKMHFUECJ2BF","2","3","3","5","4","2952","2017-09-14 14:31:09","3867"
"A2EKCV8E75NJYW","caus_thomas_all_v1","3SLE99ER0NE5J7IDOKTY9SP1ZLHZBJ","4","4","4","4","9","6170","2017-09-14 14:31:10","3868"
"A1ND4NNS6YX1SD","caus_thomas_all_v1","3R3YRB5GRF4JEYJBCJUUXPQGFLHUAU","0","2","2","2","1","10382","2017-09-14 14:31:12","3869"
"A2L5P4WPYG30UN","caus_thomas_all_v1","3IAS3U3I0FHFDWF1ZDKKMHFUECJ2BF","7","4","4","9","8","3812","2017-09-14 14:31:14","3870"
"A26APJ1QNNFDH8
","caus_thomas_all_v1","3A7Y0R2P2OPMWVGABUIUAVS3ZQSJXR","0","3","3","9","3","11718","2017-09-14 14:31:14","3871"
"AGCGQD0XVR8YM","caus_thomas_all_v1","37W3JXSD669X2K6JNPNBIZTK3SVWY5","3","4","4","6","8","7454","2017-09-14 14:31:14","3872"
"A2HG1N3BVQO6I","caus_thomas_all_v1","3RJSC4XJ10V6S6VEJGPT07MN7ID05S","5","0","0","4","8","38516","2017-09-14 14:31:15","3873"
"A26NH1I9XOF79Q","caus_thomas_all_v1","3HYA4D452RK5QDRH4F6G576FTAB2FX","0","2","2","9","7","7057","2017-09-14 14:31:16","3874"
"A39E0PSS0T80W7","caus_thomas_all_v1","3RGU30DZTA9B2JH6XNGLZEC5SM8MJA","7","2","2","2","4","18433","2017-09-14 14:31:19","3875"
"A26APJ1QNNFDH8
","caus_thomas_all_v1","3A7Y0R2P2OPMWVGABUIUAVS3ZQSJXR","0","4","4","5","6","6405","2017-09-14 14:31:21","3876"
"A19V3A2N7GWL77
","caus_thomas_all_v1","30ZX6P7VF8WLVFDDN5X1K5Y7MHS2J0","0","1","1","3","8","17081","2017-09-14 14:31:23","3877"
"A3OLRWACCCCUTU","caus_thomas_all_v1","3NAPMVF0ZWGSBKCBMW84HFTYVMR27S","4","0","0","3","3","670225","2017-09-14 14:31:24","3878"
"A1ND4NNS6YX1SD","caus_thomas_all_v1","3R3YRB5GRF4JEYJBCJUUXPQGFLHUAU","0","3","3","4","2","12690","2017-09-14 14:31:26","3879"
"A2HG1N3BVQO6I","caus_thomas_all_v1","3RJSC4XJ10V6S6VEJGPT07MN7ID05S","5","1","1","7","3","15487","2017-09-14 14:31:32","3880"
"A1DNJ3C38BJ0MJ","caus_thomas_all_v1","3FPRZHYEPY8J7S9Q8UPP63ETNIYV3O","8","0","0","1","2","40450","2017-09-14 14:31:33","3881"
"A19V3A2N7GWL77
","caus_thomas_all_v1","30ZX6P7VF8WLVFDDN5X1K5Y7MHS2J0","8","2","2","7","2","9642","2017-09-14 14:31:33","3882"
"A26NH1I9XOF79Q","caus_thomas_all_v1","3HYA4D452RK5QDRH4F6G576FTAB2FX","0","3","3","1","4","16270","2017-09-14 14:31:34","3883"
"A1ND4NNS6YX1SD","caus_thomas_all_v1","3R3YRB5GRF4JEYJBCJUUXPQGFLHUAU","0","4","4","9","3","8479","2017-09-14 14:31:35","3884"
"A11D9XGV7Y2I89","caus_thomas_all_v1","3FE2ERCCZX9VOX5G5G0IOENMWLTOPR","7","0","0","4","6","2818","2017-09-14 14:31:37","3885"
"A3OLRWACCCCUTU","caus_thomas_all_v1","3NAPMVF0ZWGSBKCBMW84HFTYVMR27S","0","1","1","10","4","14313","2017-09-14 14:31:39","3886"
"A39E0PSS0T80W7","caus_thomas_all_v1","3RGU30DZTA9B2JH6XNGLZEC5SM8MJA","8","3","3","9","8","20775","2017-09-14 14:31:41","3887"
"A2HG1N3BVQO6I","caus_thomas_all_v1","3RJSC4XJ10V6S6VEJGPT07MN7ID05S","8","2","2","1","6","9302","2017-09-14 14:31:42","3888"
"A19V3A2N7GWL77
","caus_thomas_all_v1","30ZX6P7VF8WLVFDDN5X1K5Y7MHS2J0","0","3","3","2","4","9148","2017-09-14 14:31:44","3889"
"A26NH1I9XOF79Q","caus_thomas_all_v1","3HYA4D452RK5QDRH4F6G576FTAB2FX","0","4","4","4","9","11645","2017-09-14 14:31:46","3890"
"A3OLRWACCCCUTU","caus_thomas_all_v1","3NAPMVF0ZWGSBKCBMW84HFTYVMR27S","8","2","2","9","10","7848","2017-09-14 14:31:48","3891"
"A2HG1N3BVQO6I","caus_thomas_all_v1","3RJSC4XJ10V6S6VEJGPT07MN7ID05S","5","3","3","6","9","6425","2017-09-14 14:31:49","3892"
"A1DNJ3C38BJ0MJ","caus_thomas_all_v1","3FPRZHYEPY8J7S9Q8UPP63ETNIYV3O","8","1","1","4","5","18831","2017-09-14 14:31:53","3893"
"A19V3A2N7GWL77
","caus_thomas_all_v1","30ZX6P7VF8WLVFDDN5X1K5Y7MHS2J0","4","4","4","5","7","10738","2017-09-14 14:31:55","3894"
"A3OLRWACCCCUTU","caus_thomas_all_v1","3NAPMVF0ZWGSBKCBMW84HFTYVMR27S","4","3","3","5","7","6727","2017-09-14 14:31:56","3895"
"A3D6DQGF78M17W","caus_thomas_all_v1","3XUHV3NRVKZH361AHOWE6ZL4TZF5HZ","4","0","0","7","7","46597","2017-09-14 14:31:58","3896"
"A2HG1N3BVQO6I","caus_thomas_all_v1","3RJSC4XJ10V6S6VEJGPT07MN7ID05S","5","4","4","3","2","10779","2017-09-14 14:32:01","3897"
"A3OLRWACCCCUTU","caus_thomas_all_v1","3NAPMVF0ZWGSBKCBMW84HFTYVMR27S","4","4","4","4","2","6242","2017-09-14 14:32:03","3898"
"A2S5CMTSN42YWM","caus_thomas_all_v1","3X4MXAO0BGPO5JUX9UVHA30N05GRWY","0","0","0","9","10","61794","2017-09-14 14:32:04","3899"
"A39E0PSS0T80W7","caus_thomas_all_v1","3RGU30DZTA9B2JH6XNGLZEC5SM8MJA","7","4","4","6","7","23758","2017-09-14 14:32:05","3900"
"A1DNJ3C38BJ0MJ","caus_thomas_all_v1","3FPRZHYEPY8J7S9Q8UPP63ETNIYV3O","7","2","2","9","3","12805","2017-09-14 14:32:07","3901"
"A1DNJ3C38BJ0MJ","caus_thomas_all_v1","3FPRZHYEPY8J7S9Q8UPP63ETNIYV3O","7","3","3","10","1","10100","2017-09-14 14:32:18","3902"
"A3D6DQGF78M17W","caus_thomas_all_v1","3XUHV3NRVKZH361AHOWE6ZL4TZF5HZ","5","1","1","5","8","26575","2017-09-14 14:32:26","3903"
"AI9NJ89EXVDY1","caus_thomas_all_v1","32ZKVD547FO4YEBK3DYP5RKMKQJ3BR","1","0","0","5","4","38846","2017-09-14 14:32:26","3904"
"A2BXIKA3RQU7B5","caus_thomas_all_v1","3OVR4I9USPKCKGWDM90YAL7RKQG4QP","6","0","0","2","9","96046","2017-09-14 14:32:27","3905"
"A1DNJ3C38BJ0MJ","caus_thomas_all_v1","3FPRZHYEPY8J7S9Q8UPP63ETNIYV3O","7","4","4","2","7","8506","2017-09-14 14:32:27","3906"
"A2S5CMTSN42YWM","caus_thomas_all_v1","3X4MXAO0BGPO5JUX9UVHA30N05GRWY","0","1","1","5","7","28135","2017-09-14 14:32:33","3907"
"A11D9XGV7Y2I89","caus_thomas_all_v1","3FE2ERCCZX9VOX5G5G0IOENMWLTOPR","2","1","1","1","5","56439","2017-09-14 14:32:34","3908"
"A3D6DQGF78M17W","caus_thomas_all_v1","3XUHV3NRVKZH361AHOWE6ZL4TZF5HZ","3","2","2","3","1","13624","2017-09-14 14:32:41","3909"
"AI9NJ89EXVDY1","caus_thomas_all_v1","32ZKVD547FO4YEBK3DYP5RKMKQJ3BR","8","1","1","4","10","17254","2017-09-14 14:32:45","3910"
"A11D9XGV7Y2I89","caus_thomas_all_v1","3FE2ERCCZX9VOX5G5G0IOENMWLTOPR","4","2","2","3","7","12536","2017-09-14 14:32:48","3911"
"A2S5CMTSN42YWM","caus_thomas_all_v1","3X4MXAO0BGPO5JUX9UVHA30N05GRWY","0","2","2","4","3","15929","2017-09-14 14:32:50","3912"
"A2KISOEXKF5OTJ","caus_thomas_all_v1","3VBEN272MK049C4A9ER4EAJVSJ9SGO","6","0","0","10","8","31270","2017-09-14 14:32:53","3913"
"A2BXIKA3RQU7B5","caus_thomas_all_v1","3OVR4I9USPKCKGWDM90YAL7RKQG4QP","8","1","1","1","7","25080","2017-09-14 14:32:53","3914"
"A2Z96TK65BB7LC
","caus_thomas_all_v1","3MAOD8E57QBIFL7VQSAM329K8AWXN8","0","2","2","8","9","376521","2017-09-14 14:32:55","3915"
"A3K43RI91Y567E","caus_thomas_all_v1","3E13VNJ1NNWIBJBBMJCN3L92HWPI1N","3","0","0","4","1","41528","2017-09-14 14:32:57","3916"
"A11D9XGV7Y2I89","caus_thomas_all_v1","3FE2ERCCZX9VOX5G5G0IOENMWLTOPR","7","3","3","9","9","10669","2017-09-14 14:32:59","3917"
"A3D6DQGF78M17W","caus_thomas_all_v1","3XUHV3NRVKZH361AHOWE6ZL4TZF5HZ","3","3","3","8","3","18048","2017-09-14 14:33:00","3918"
"AI9NJ89EXVDY1","caus_thomas_all_v1","32ZKVD547FO4YEBK3DYP5RKMKQJ3BR","0","2","2","7","1","15228","2017-09-14 14:33:01","3919"
"A2KISOEXKF5OTJ","caus_thomas_all_v1","3VBEN272MK049C4A9ER4EAJVSJ9SGO","3","1","1","3","2","10015","2017-09-14 14:33:04","3920"
"A11D9XGV7Y2I89","caus_thomas_all_v1","3FE2ERCCZX9VOX5G5G0IOENMWLTOPR","3","4","4","7","3","4253","2017-09-14 14:33:05","3921"
"A2BXIKA3RQU7B5","caus_thomas_all_v1","3OVR4I9USPKCKGWDM90YAL7RKQG4QP","4","2","2","5","6","12004","2017-09-14 14:33:06","3922"
"A2S5CMTSN42YWM","caus_thomas_all_v1","3X4MXAO0BGPO5JUX9UVHA30N05GRWY","0","3","3","7","8","15423","2017-09-14 14:33:07","3923"
"A2Z96TK65BB7LC
","caus_thomas_all_v1","3MAOD8E57QBIFL7VQSAM329K8AWXN8","5","3","3","5","7","12235","2017-09-14 14:33:08","3924"
"A2KISOEXKF5OTJ","caus_thomas_all_v1","3VBEN272MK049C4A9ER4EAJVSJ9SGO","4","2","2","8","1","5933","2017-09-14 14:33:11","3925"
"AI9NJ89EXVDY1","caus_thomas_all_v1","32ZKVD547FO4YEBK3DYP5RKMKQJ3BR","8","3","3","1","5","11634","2017-09-14 14:33:14","3926"
"A2Z96TK65BB7LC
","caus_thomas_all_v1","3MAOD8E57QBIFL7VQSAM329K8AWXN8","0","4","4","9","3","4533","2017-09-14 14:33:14","3927"
"A3D6DQGF78M17W","caus_thomas_all_v1","3XUHV3NRVKZH361AHOWE6ZL4TZF5HZ","7","4","4","9","10","14150","2017-09-14 14:33:15","3928"
"A3K43RI91Y567E","caus_thomas_all_v1","3E13VNJ1NNWIBJBBMJCN3L92HWPI1N","7","1","1","3","10","17296","2017-09-14 14:33:15","3929"
"A2O2BJS2PK29DP","caus_thomas_all_v1","392CY0QWG1SZ3I8U91VP1JG5TGZ4IM","6","0","0","2","8","262246","2017-09-14 14:33:16","3930"
"A2BXIKA3RQU7B5","caus_thomas_all_v1","3OVR4I9USPKCKGWDM90YAL7RKQG4QP","3","3","3","6","8","10878","2017-09-14 14:33:18","3931"
"A2S5CMTSN42YWM","caus_thomas_all_v1","3X4MXAO0BGPO5JUX9UVHA30N05GRWY","0","4","4","2","6","11191","2017-09-14 14:33:19","3932"
"AI9NJ89EXVDY1","caus_thomas_all_v1","32ZKVD547FO4YEBK3DYP5RKMKQJ3BR","1","4","4","8","2","7601","2017-09-14 14:33:22","3933"
"A6MMICWWJKE0K","caus_thomas_all_v1","3AMYWKA6YBNNERNBQK19IEW51G46O4","0","0","0","2","2","28995","2017-09-14 14:33:25","3934"
"A2BXIKA3RQU7B5","caus_thomas_all_v1","3OVR4I9USPKCKGWDM90YAL7RKQG4QP","3","4","4","9","5","6377","2017-09-14 14:33:26","3935"
"A3K43RI91Y567E","caus_thomas_all_v1","3E13VNJ1NNWIBJBBMJCN3L92HWPI1N","4","2","2","8","9","13316","2017-09-14 14:33:30","3936"
"A3UEJQ4EJB9DBD","caus_thomas_all_v1","3UJ1CZ6IZHQ6TFFQSI8DADS62AW5SK","2","0","0","4","6","30890","2017-09-14 14:33:32","3937"
"A2O2BJS2PK29DP","caus_thomas_all_v1","392CY0QWG1SZ3I8U91VP1JG5TGZ4IM","4","1","1","6","4","16188","2017-09-14 14:33:33","3938"
"A2VOADROWMC2ZM","caus_thomas_all_v1","3AAPLD8UCCIJO8C0IKEC9FRI921HT2","0","0","0","9","8","50795","2017-09-14 14:33:36","3939"
"A6MMICWWJKE0K","caus_thomas_all_v1","3AMYWKA6YBNNERNBQK19IEW51G46O4","0","1","1","4","4","10563","2017-09-14 14:33:37","3940"
"A2O2BJS2PK29DP","caus_thomas_all_v1","392CY0QWG1SZ3I8U91VP1JG5TGZ4IM","4","2","2","3","2","3468","2017-09-14 14:33:38","3941"
"A3K43RI91Y567E","caus_thomas_all_v1","3E13VNJ1NNWIBJBBMJCN3L92HWPI1N","5","3","3","5","8","9322","2017-09-14 14:33:40","3942"
"A2O2BJS2PK29DP","caus_thomas_all_v1","392CY0QWG1SZ3I8U91VP1JG5TGZ4IM","4","3","3","9","6","5698","2017-09-14 14:33:45","3943"
"A3CVX7GHF3B65Q","caus_thomas_all_v1","3VP0C6EFSGXZEO2ZD4MWQA706GP6MP","0","0","0","2","1","27169","2017-09-14 14:33:47","3944"
"A3K43RI91Y567E","caus_thomas_all_v1","3E13VNJ1NNWIBJBBMJCN3L92HWPI1N","7","4","4","1","6","5935","2017-09-14 14:33:47","3945"
"A6MMICWWJKE0K","caus_thomas_all_v1","3AMYWKA6YBNNERNBQK19IEW51G46O4","0","2","2","5","6","9860","2017-09-14 14:33:47","3946"
"A2KISOEXKF5OTJ","caus_thomas_all_v1","3VBEN272MK049C4A9ER4EAJVSJ9SGO","4","3","3","2","3","37046","2017-09-14 14:33:49","3947"
"A2O2BJS2PK29DP","caus_thomas_all_v1","392CY0QWG1SZ3I8U91VP1JG5TGZ4IM","4","4","4","5","1","6464","2017-09-14 14:33:52","3948"
"A3UEJQ4EJB9DBD","caus_thomas_all_v1","3UJ1CZ6IZHQ6TFFQSI8DADS62AW5SK","2","1","1","5","3","19507","2017-09-14 14:33:52","3949"
"A6MMICWWJKE0K","caus_thomas_all_v1","3AMYWKA6YBNNERNBQK19IEW51G46O4","0","3","3","10","9","7949","2017-09-14 14:33:56","3950"
"A2KISOEXKF5OTJ","caus_thomas_all_v1","3VBEN272MK049C4A9ER4EAJVSJ9SGO","4","4","4","6","4","6120","2017-09-14 14:33:56","3951"
"A2VOADROWMC2ZM","caus_thomas_all_v1","3AAPLD8UCCIJO8C0IKEC9FRI921HT2","0","1","1","3","1","22882","2017-09-14 14:33:57","3952"
"A3S111A5IU2NXI","caus_thomas_all_v1","3OLQQLKKNSQDQVPTGPS2M67WJKIJEJ","4","0","0","3","3","33511","2017-09-14 14:33:58","3953"
"A3CVX7GHF3B65Q","caus_thomas_all_v1","3VP0C6EFSGXZEO2ZD4MWQA706GP6MP","8","1","1","1","10","13891","2017-09-14 14:34:02","3954"
"A3UEJQ4EJB9DBD","caus_thomas_all_v1","3UJ1CZ6IZHQ6TFFQSI8DADS62AW5SK","2","2","2","6","7","9548","2017-09-14 14:34:03","3955"
"A6MMICWWJKE0K","caus_thomas_all_v1","3AMYWKA6YBNNERNBQK19IEW51G46O4","0","4","4","7","5","7533","2017-09-14 14:34:05","3956"
"A2VOADROWMC2ZM","caus_thomas_all_v1","3AAPLD8UCCIJO8C0IKEC9FRI921HT2","0","2","2","4","3","15419","2017-09-14 14:34:13","3957"
"A3UEJQ4EJB9DBD","caus_thomas_all_v1","3UJ1CZ6IZHQ6TFFQSI8DADS62AW5SK","2","3","3","2","9","9263","2017-09-14 14:34:13","3958"
"A3X6N2OAY5XY8","caus_thomas_all_v1","3HWRJOOET536PY8J3J1GE7YJF3UEST","5","0","0","3","7","77339","2017-09-14 14:34:15","3959"
"A3S111A5IU2NXI","caus_thomas_all_v1","3OLQQLKKNSQDQVPTGPS2M67WJKIJEJ","7","1","1","1","9","16457","2017-09-14 14:34:15","3960"
"A3CVX7GHF3B65Q","caus_thomas_all_v1","3VP0C6EFSGXZEO2ZD4MWQA706GP6MP","0","2","2","8","6","13956","2017-09-14 14:34:17","3961"
"A191V7PT3DQKDP","caus_thomas_all_v1","32KTQ2V7RDGMW74XBBP8AKY2WHXM9G","2","0","0","2","2","40914","2017-09-14 14:34:18","3962"
"A3LO9SYHF0CJII","caus_thomas_all_v1","3KIBXJ1WD5VUD680SOVASX1N2BOKON","0","0","0","10","2","94301","2017-09-14 14:34:19","3963"
"A35ARURSRU6UAZ","caus_thomas_all_v1","3PS7W85Z8Z3Q92UHK8QKWYTUQPTT9O","4","0","0","7","2","63834","2017-09-14 14:34:22","3964"
"A2VOADROWMC2ZM","caus_thomas_all_v1","3AAPLD8UCCIJO8C0IKEC9FRI921HT2","0","3","3","6","9","9437","2017-09-14 14:34:23","3965"
"A3UEJQ4EJB9DBD","caus_thomas_all_v1","3UJ1CZ6IZHQ6TFFQSI8DADS62AW5SK","1","4","4","10","10","10631","2017-09-14 14:34:25","3966"
"AXJND2BH6C55U
","caus_thomas_all_v1","3300DTYQT2IUCIT6BFCBJ7JIXFAQEH","7","0","0","3","1","36063","2017-09-14 14:34:29","3967"
"A3S111A5IU2NXI","caus_thomas_all_v1","3OLQQLKKNSQDQVPTGPS2M67WJKIJEJ","4","2","2","5","8","13508","2017-09-14 14:34:30","3968"
"A2VOADROWMC2ZM","caus_thomas_all_v1","3AAPLD8UCCIJO8C0IKEC9FRI921HT2","0","4","4","8","5","5639","2017-09-14 14:34:30","3969"
"A3CVX7GHF3B65Q","caus_thomas_all_v1","3VP0C6EFSGXZEO2ZD4MWQA706GP6MP","0","3","3","7","4","14170","2017-09-14 14:34:32","3970"
"A25D66AC4QUW2U","caus_thomas_all_v1","3BV8HQ2ZZW2YCNTAG1WRHJC0CZ06A5","1","0","0","3","4","103072","2017-09-14 14:34:33","3971"
"A35ARURSRU6UAZ","caus_thomas_all_v1","3PS7W85Z8Z3Q92UHK8QKWYTUQPTT9O","4","1","1","5","4","14982","2017-09-14 14:34:37","3972"
"A3X6N2OAY5XY8","caus_thomas_all_v1","3HWRJOOET536PY8J3J1GE7YJF3UEST","2","1","1","7","2","21107","2017-09-14 14:34:37","3973"
"A3LTB4N42X501J","caus_thomas_all_v1","3BDCF01OGXVHRQUKJBG99OC45LSLY2","8","0","0","5","10","43121","2017-09-14 14:34:37","3974"
"A191V7PT3DQKDP","caus_thomas_all_v1","32KTQ2V7RDGMW74XBBP8AKY2WHXM9G","2","1","1","7","7","20338","2017-09-14 14:34:39","3975"
"A1NHQ59G0I4LQT","caus_thomas_all_v1","358UUM7WRZ49F4TW1MN5IN167E8R7X","6","0","0","6","5","11705","2017-09-14 14:34:40","3976"
"A3CVX7GHF3B65Q","caus_thomas_all_v1","3VP0C6EFSGXZEO2ZD4MWQA706GP6MP","0","4","4","5","3","8993","2017-09-14 14:34:42","3977"
"A35ARURSRU6UAZ","caus_thomas_all_v1","3PS7W85Z8Z3Q92UHK8QKWYTUQPTT9O","4","2","2","2","5","8959","2017-09-14 14:34:45","3978"
"A3S111A5IU2NXI","caus_thomas_all_v1","3OLQQLKKNSQDQVPTGPS2M67WJKIJEJ","6","3","3","4","7","15709","2017-09-14 14:34:46","3979"
"AXJND2BH6C55U
","caus_thomas_all_v1","3300DTYQT2IUCIT6BFCBJ7JIXFAQEH","4","1","1","1","4","19490","2017-09-14 14:34:49","3980"
"A3X6N2OAY5XY8","caus_thomas_all_v1","3HWRJOOET536PY8J3J1GE7YJF3UEST","5","2","2","4","8","13542","2017-09-14 14:34:51","3981"
"A191V7PT3DQKDP","caus_thomas_all_v1","32KTQ2V7RDGMW74XBBP8AKY2WHXM9G","1","2","2","6","6","11588","2017-09-14 14:34:52","3982"
"A1L3VYVRPNGGQP","caus_thomas_all_v1","3Z4XG4ZF48SXCEKRKQL3L5JPJFZ8XX","0","0","0","2","1","68925","2017-09-14 14:34:52","3983"
"A1NHQ59G0I4LQT","caus_thomas_all_v1","358UUM7WRZ49F4TW1MN5IN167E8R7X","7","1","1","1","6","14013","2017-09-14 14:34:55","3984"
"AXJND2BH6C55U
","caus_thomas_all_v1","3300DTYQT2IUCIT6BFCBJ7JIXFAQEH","8","2","2","9","2","6584","2017-09-14 14:34:57","3985"
"A35ARURSRU6UAZ","caus_thomas_all_v1","3PS7W85Z8Z3Q92UHK8QKWYTUQPTT9O","4","3","3","1","6","12240","2017-09-14 14:34:58","3986"
"A1YH4LT7EAYT47","caus_thomas_all_v1","3TYCR1GOTCKHWG4PFXISNVL6BFVLZS","0","0","0","3","4","20754","2017-09-14 14:34:59","3987"
"A191V7PT3DQKDP","caus_thomas_all_v1","32KTQ2V7RDGMW74XBBP8AKY2WHXM9G","1","3","3","4","5","8228","2017-09-14 14:35:01","3988"
"A3S111A5IU2NXI","caus_thomas_all_v1","3OLQQLKKNSQDQVPTGPS2M67WJKIJEJ","4","4","4","8","5","15560","2017-09-14 14:35:03","3989"
"A1NHQ59G0I4LQT","caus_thomas_all_v1","358UUM7WRZ49F4TW1MN5IN167E8R7X","4","2","2","8","4","7531","2017-09-14 14:35:04","3990"
"A3LO9SYHF0CJII","caus_thomas_all_v1","3KIBXJ1WD5VUD680SOVASX1N2BOKON","4","1","1","3","4","44658","2017-09-14 14:35:04","3991"
"A34IR43LQJEA8C","caus_thomas_all_v1","3WI0P0II61TPWDU6SZQRIFB2TPBRDQ","5","0","0","7","1","12986","2017-09-14 14:35:07","3992"
"A1NHQ59G0I4LQT","caus_thomas_all_v1","358UUM7WRZ49F4TW1MN5IN167E8R7X","1","3","3","9","9","3706","2017-09-14 14:35:08","3993"
"A35ARURSRU6UAZ","caus_thomas_all_v1","3PS7W85Z8Z3Q92UHK8QKWYTUQPTT9O","7","4","4","9","10","9698","2017-09-14 14:35:08","3994"
"A3LTB4N42X501J","caus_thomas_all_v1","3BDCF01OGXVHRQUKJBG99OC45LSLY2","5","1","1","2","4","30826","2017-09-14 14:35:09","3995"
"A1YH4LT7EAYT47","caus_thomas_all_v1","3TYCR1GOTCKHWG4PFXISNVL6BFVLZS","0","1","1","4","6","9679","2017-09-14 14:35:10","3996"
"AXJND2BH6C55U
","caus_thomas_all_v1","3300DTYQT2IUCIT6BFCBJ7JIXFAQEH","4","3","3","4","3","12383","2017-09-14 14:35:11","3997"
"A191V7PT3DQKDP","caus_thomas_all_v1","32KTQ2V7RDGMW74XBBP8AKY2WHXM9G","1","4","4","8","9","9372","2017-09-14 14:35:11","3998"
"A1NHQ59G0I4LQT","caus_thomas_all_v1","358UUM7WRZ49F4TW1MN5IN167E8R7X","0","4","4","10","3","3801","2017-09-14 14:35:13","3999"
"A1YH4LT7EAYT47","caus_thomas_all_v1","3TYCR1GOTCKHWG4PFXISNVL6BFVLZS","0","2","2","8","3","4537","2017-09-14 14:35:15","4000"
"A34IR43LQJEA8C","caus_thomas_all_v1","3WI0P0II61TPWDU6SZQRIFB2TPBRDQ","7","1","1","4","8","7880","2017-09-14 14:35:16","4001"
"A1N8IT6PFVE7SU","caus_thomas_all_v1","3KGTPGBS6XMU9VO7Z41FR77I3XQU2O","3","0","0","9","4","82989","2017-09-14 14:35:16","4002"
"A25D66AC4QUW2U","caus_thomas_all_v1","3BV8HQ2ZZW2YCNTAG1WRHJC0CZ06A5","1","1","1","4","9","43915","2017-09-14 14:35:18","4003"
"A1YH4LT7EAYT47","caus_thomas_all_v1","3TYCR1GOTCKHWG4PFXISNVL6BFVLZS","0","3","3","1","9","4684","2017-09-14 14:35:21","4004"
