"subject","version","assignmentId","rating","question_ind","trial_ind","focal_high","alt_high","rt","stamp","id"
"A1HN4550TIXQBZ","caus_thomas_ss_v1","3WLEIWSYHOIP49INZ5UG8SIS9BBH25","8","2","0","0","0","13585","2017-09-12 21:46:49","9"
"A1HN4550TIXQBZ","caus_thomas_ss_v1","3WLEIWSYHOIP49INZ5UG8SIS9BBH25","8","1","1","1","1","5554","2017-09-12 21:46:56","10"
"A1HN4550TIXQBZ","caus_thomas_ss_v1","3WLEIWSYHOIP49INZ5UG8SIS9BBH25","8","3","2","0","1","4307","2017-09-12 21:47:01","11"
"A1HN4550TIXQBZ","caus_thomas_ss_v1","3WLEIWSYHOIP49INZ5UG8SIS9BBH25","8","0","3","1","0","3766","2017-09-12 21:47:06","12"
"A2LF84L3K71GR2","caus_thomas_ss_v1","3RRCEFRB7MDPGAUO3R38FWCSYC24B8","4","3","0","0","1","45595","2017-09-12 21:47:41","13"
"A18SXC3JEN1O0U","caus_thomas_ss_v1","3HMVI3QICJT41JQGQ1YQP93Q71A1Y7","1","1","0","1","1","76743","2017-09-12 21:48:09","14"
"A2LF84L3K71GR2","caus_thomas_ss_v1","3RRCEFRB7MDPGAUO3R38FWCSYC24B8","4","1","1","1","1","27939","2017-09-12 21:48:10","15"
"A2LF84L3K71GR2","caus_thomas_ss_v1","3RRCEFRB7MDPGAUO3R38FWCSYC24B8","4","0","2","1","0","11957","2017-09-12 21:48:23","16"
"ADUZ6RO42OM0T","caus_thomas_ss_v1","3Z4GS9HPNVBZXL9HS8PZD6A66O1779","8","2","0","0","0","44355","2017-09-12 21:48:26","17"
"A2LF84L3K71GR2","caus_thomas_ss_v1","3RRCEFRB7MDPGAUO3R38FWCSYC24B8","4","2","3","0","0","17745","2017-09-12 21:48:42","18"
"ADUZ6RO42OM0T","caus_thomas_ss_v1","3Z4GS9HPNVBZXL9HS8PZD6A66O1779","8","0","1","1","0","24118","2017-09-12 21:48:51","19"
"A18SXC3JEN1O0U","caus_thomas_ss_v1","3HMVI3QICJT41JQGQ1YQP93Q71A1Y7","1","0","1","1","0","42972","2017-09-12 21:48:53","20"
"AMDX0UNZS4A1G","caus_thomas_ss_v1","3PDJHANYK5HDMA1OM76JY5Z4PGDH6M","7","1","0","1","1","46997","2017-09-12 21:48:59","21"
"ADUZ6RO42OM0T","caus_thomas_ss_v1","3Z4GS9HPNVBZXL9HS8PZD6A66O1779","0","1","2","1","1","20502","2017-09-12 21:49:13","22"
"A18SXC3JEN1O0U","caus_thomas_ss_v1","3HMVI3QICJT41JQGQ1YQP93Q71A1Y7","0","2","2","0","0","23905","2017-09-12 21:49:18","23"
"A18SXC3JEN1O0U","caus_thomas_ss_v1","3HMVI3QICJT41JQGQ1YQP93Q71A1Y7","0","3","3","0","1","10339","2017-09-12 21:49:29","24"
"AMDX0UNZS4A1G","caus_thomas_ss_v1","3PDJHANYK5HDMA1OM76JY5Z4PGDH6M","5","2","1","0","0","30003","2017-09-12 21:49:30","25"
"ADUZ6RO42OM0T","caus_thomas_ss_v1","3Z4GS9HPNVBZXL9HS8PZD6A66O1779","8","3","3","0","1","21567","2017-09-12 21:49:36","26"
"ABL3H3O3BI8ZD","caus_thomas_ss_v1","3K9FOBBF2HKNFRQ6C97YS8EX1NBLN7","4","2","0","0","0","3574","2017-09-12 21:49:36","27"
"ABL3H3O3BI8ZD","caus_thomas_ss_v1","3K9FOBBF2HKNFRQ6C97YS8EX1NBLN7","5","1","1","1","1","2082","2017-09-12 21:49:39","28"
"AMDX0UNZS4A1G","caus_thomas_ss_v1","3PDJHANYK5HDMA1OM76JY5Z4PGDH6M","2","0","2","1","0","7835","2017-09-12 21:49:39","29"
"ABL3H3O3BI8ZD","caus_thomas_ss_v1","3K9FOBBF2HKNFRQ6C97YS8EX1NBLN7","6","0","2","1","0","1447","2017-09-12 21:49:42","30"
"ABL3H3O3BI8ZD","caus_thomas_ss_v1","3K9FOBBF2HKNFRQ6C97YS8EX1NBLN7","5","3","3","0","1","1461","2017-09-12 21:49:44","31"
"AMDX0UNZS4A1G","caus_thomas_ss_v1","3PDJHANYK5HDMA1OM76JY5Z4PGDH6M","8","3","3","0","1","12531","2017-09-12 21:49:53","32"
"AMPMTF5IAAMK8","caus_thomas_ss_v1","3RKNTXVS3MZKX0PWXD3CKLSMGUHA4J","7","3","0","0","1","84650","2017-09-12 21:50:30","33"
"AMPMTF5IAAMK8","caus_thomas_ss_v1","3RKNTXVS3MZKX0PWXD3CKLSMGUHA4J","3","0","1","1","0","13870","2017-09-12 21:50:45","34"
"AMPMTF5IAAMK8","caus_thomas_ss_v1","3RKNTXVS3MZKX0PWXD3CKLSMGUHA4J","2","2","2","0","0","52693","2017-09-12 21:51:39","35"
"AMPMTF5IAAMK8","caus_thomas_ss_v1","3RKNTXVS3MZKX0PWXD3CKLSMGUHA4J","1","1","3","1","1","44443","2017-09-12 21:52:24","36"
"A125KW9P18V5Z1","caus_thomas_ss_v1","3DEL4X4EL6MCRKB9XUJXKI7RCGOYXV","5","0","0","1","0","32026","2017-09-12 21:55:34","37"
"A125KW9P18V5Z1","caus_thomas_ss_v1","3DEL4X4EL6MCRKB9XUJXKI7RCGOYXV","6","2","1","0","0","22054","2017-09-12 21:55:57","38"
"A125KW9P18V5Z1","caus_thomas_ss_v1","3DEL4X4EL6MCRKB9XUJXKI7RCGOYXV","7","3","2","0","1","6340","2017-09-12 21:56:04","39"
"A125KW9P18V5Z1","caus_thomas_ss_v1","3DEL4X4EL6MCRKB9XUJXKI7RCGOYXV","7","1","3","1","1","8551","2017-09-12 21:56:14","40"
"A2MKXI4KCRRI7Y","caus_thomas_ss_v1","3PMBY0YE2749NLS6YMVU7OTQ2PGC9J","0","2","0","0","0","30199","2017-09-12 22:47:34","41"
"A2MKXI4KCRRI7Y","caus_thomas_ss_v1","3PMBY0YE2749NLS6YMVU7OTQ2PGC9J","0","1","1","1","1","15350","2017-09-12 22:47:50","42"
"A2MKXI4KCRRI7Y","caus_thomas_ss_v1","3PMBY0YE2749NLS6YMVU7OTQ2PGC9J","0","0","2","1","0","13881","2017-09-12 22:48:05","43"
"A2MKXI4KCRRI7Y","caus_thomas_ss_v1","3PMBY0YE2749NLS6YMVU7OTQ2PGC9J","0","3","3","0","1","8627","2017-09-12 22:48:15","44"
"A2LFT9N17HS9FX","caus_thomas_ss_v1","3180JW2OT4DDUCW05OZZIC1J6ME5JP","4","1","0","1","1","2453","2017-09-13 13:42:51","45"
"A2LFT9N17HS9FX","caus_thomas_ss_v1","3180JW2OT4DDUCW05OZZIC1J6ME5JP","6","2","1","0","0","2492","2017-09-13 13:42:54","46"
"A2LFT9N17HS9FX","caus_thomas_ss_v1","3180JW2OT4DDUCW05OZZIC1J6ME5JP","3","0","2","1","0","1709","2017-09-13 13:42:57","47"
"A2LFT9N17HS9FX","caus_thomas_ss_v1","3180JW2OT4DDUCW05OZZIC1J6ME5JP","6","3","3","0","1","1636","2017-09-13 13:42:59","48"
"A3MSD8X8VC7ESQ","caus_thomas_ss_v1","340UGXU9DY236MM9NELQTC4T0QEUVH","0","2","0","0","0","31900","2017-09-13 13:43:13","49"
"A1RMV20BN1IPH7","caus_thomas_ss_v1","36TFCYNS44BQ5PLKNUF9YICOMTKXHM","3","2","0","0","0","29504","2017-09-13 13:43:15","50"
"A3MSD8X8VC7ESQ","caus_thomas_ss_v1","340UGXU9DY236MM9NELQTC4T0QEUVH","0","0","1","1","0","17686","2017-09-13 13:43:32","51"
"A1RMV20BN1IPH7","caus_thomas_ss_v1","36TFCYNS44BQ5PLKNUF9YICOMTKXHM","3","0","1","1","0","16018","2017-09-13 13:43:32","52"
"A3B7Z7LVOM0ULG","caus_thomas_ss_v1","3OSWBBLG1EY9T9GI1YWJ7XXQU1RXDD","6","3","0","0","1","41240","2017-09-13 13:43:35","53"
"A21ZXLGZ9OBHJV","caus_thomas_ss_v1","3OCHAWUVGOLH7FMSTFI6BASGEAOXKQ","7","3","0","0","1","33466","2017-09-13 13:43:35","54"
"A3EEMZ0K3T47QZ","caus_thomas_ss_v1","3TGOYF991XN3T7X9IOBLXQ2AMJ5UUS","1","2","0","0","0","36166","2017-09-13 13:43:37","55"
"A23VM3SZWYATBO","caus_thomas_ss_v1","3OXV7EAXLERYS2UP7MHHUBYU6K436S","6","3","0","0","1","28227","2017-09-13 13:43:38","56"
"A35P8YSNTQ7OTP","caus_thomas_ss_v1","3RUIQRXJBBPXRRNL0WRJFGA8W1JLLV","4","2","0","0","0","31632","2017-09-13 13:43:45","57"
"A3MSD8X8VC7ESQ","caus_thomas_ss_v1","340UGXU9DY236MM9NELQTC4T0QEUVH","0","3","2","0","1","13155","2017-09-13 13:43:46","58"
"A1RMV20BN1IPH7","caus_thomas_ss_v1","36TFCYNS44BQ5PLKNUF9YICOMTKXHM","6","3","2","0","1","13248","2017-09-13 13:43:47","59"
"A3B7Z7LVOM0ULG","caus_thomas_ss_v1","3OSWBBLG1EY9T9GI1YWJ7XXQU1RXDD","2","0","1","1","0","10967","2017-09-13 13:43:47","60"
"A1C59M3HPCO503","caus_thomas_ss_v1","3JBT3HLQF837N1JN7PBZ4CUQGKSPZG","1","2","0","0","0","31093","2017-09-13 13:43:50","61"
"AF9NG1PF59D1U","caus_thomas_ss_v1","30X31N5D63R3ZLR7NEZUIO8SUJSSAY","4","3","0","0","1","35340","2017-09-13 13:43:50","62"
"A35P8YSNTQ7OTP","caus_thomas_ss_v1","3RUIQRXJBBPXRRNL0WRJFGA8W1JLLV","4","3","1","0","1","3547","2017-09-13 13:43:50","63"
"A20EU0UH5K3VGE","caus_thomas_ss_v1","3WETL7AQWT929YUB237C25KUAPT35C","0","3","0","0","1","28272","2017-09-13 13:43:51","64"
"A2X2OS8NNDMJY0","caus_thomas_ss_v1","34HJIJKLP5X4POSU88U8G86Z1DQV4V","8","3","0","0","1","18932","2017-09-13 13:43:51","65"
"A1CZU3RMLIJDLP","caus_thomas_ss_v1","34MAJL3QP4OKDFQBOYO2XDEGATY347","0","3","0","0","1","39560","2017-09-13 13:43:52","66"
"AFEMLCPEI61GB","caus_thomas_ss_v1","3SNLUL3WO4O0AHAF9AJK636R9SCLUP","0","3","0","0","1","26308","2017-09-13 13:43:53","67"
"A23VM3SZWYATBO","caus_thomas_ss_v1","3OXV7EAXLERYS2UP7MHHUBYU6K436S","3","0","1","1","0","14616","2017-09-13 13:43:53","68"
"A35P8YSNTQ7OTP","caus_thomas_ss_v1","3RUIQRXJBBPXRRNL0WRJFGA8W1JLLV","4","1","2","1","1","4288","2017-09-13 13:43:55","69"
"A1RMV20BN1IPH7","caus_thomas_ss_v1","36TFCYNS44BQ5PLKNUF9YICOMTKXHM","4","1","3","1","1","7734","2017-09-13 13:43:55","70"
"A35P8YSNTQ7OTP","caus_thomas_ss_v1","3RUIQRXJBBPXRRNL0WRJFGA8W1JLLV","4","0","3","1","0","1753","2017-09-13 13:43:58","71"
"A3B7Z7LVOM0ULG","caus_thomas_ss_v1","3OSWBBLG1EY9T9GI1YWJ7XXQU1RXDD","2","2","2","0","0","9829","2017-09-13 13:43:58","72"
"A2YLSDVP8Z0ZMV","caus_thomas_ss_v1","3FPRZHYEPY8J7S9Q8UPP63ETNDUV3A","5","0","0","1","0","51133","2017-09-13 13:43:59","73"
"A1ZO9R72DWQRZ1","caus_thomas_ss_v1","339ANSOTR53KHKXXUTI58051QXKIKB","5","0","0","1","0","41845","2017-09-13 13:43:59","74"
"A3MSD8X8VC7ESQ","caus_thomas_ss_v1","340UGXU9DY236MM9NELQTC4T0QEUVH","0","1","3","1","1","13096","2017-09-13 13:44:00","75"
"A3EEMZ0K3T47QZ","caus_thomas_ss_v1","3TGOYF991XN3T7X9IOBLXQ2AMJ5UUS","1","0","1","1","0","23628","2017-09-13 13:44:01","76"
"A2X2OS8NNDMJY0","caus_thomas_ss_v1","34HJIJKLP5X4POSU88U8G86Z1DQV4V","6","1","1","1","1","10024","2017-09-13 13:44:02","77"
"A23VM3SZWYATBO","caus_thomas_ss_v1","3OXV7EAXLERYS2UP7MHHUBYU6K436S","2","1","2","1","1","9714","2017-09-13 13:44:04","78"
"A6B8DOH3KV5SL","caus_thomas_ss_v1","358010RM5EUVNQG4SJWDDJ3XU8VXVC","6","0","0","1","0","28421","2017-09-13 13:44:07","79"
"A3B7Z7LVOM0ULG","caus_thomas_ss_v1","3OSWBBLG1EY9T9GI1YWJ7XXQU1RXDD","4","1","3","1","1","8213","2017-09-13 13:44:07","80"
"A18E19QXO73YM4","caus_thomas_ss_v1","3G0WWMR1UVLY6O6J4EFU9UDRB26NQO","1","1","0","1","1","50346","2017-09-13 13:44:07","81"
"A1TARNH07A75CG","caus_thomas_ss_v1","3AWETUDC92TF6FWJUULFVFTEU6XIZX","4","2","0","0","0","32116","2017-09-13 13:44:08","82"
"AFEMLCPEI61GB","caus_thomas_ss_v1","3SNLUL3WO4O0AHAF9AJK636R9SCLUP","0","2","1","0","0","13962","2017-09-13 13:44:08","83"
"AF9NG1PF59D1U","caus_thomas_ss_v1","30X31N5D63R3ZLR7NEZUIO8SUJSSAY","4","1","1","1","1","17818","2017-09-13 13:44:08","84"
"A20EU0UH5K3VGE","caus_thomas_ss_v1","3WETL7AQWT929YUB237C25KUAPT35C","2","2","1","0","0","16463","2017-09-13 13:44:08","85"
"A1C59M3HPCO503","caus_thomas_ss_v1","3JBT3HLQF837N1JN7PBZ4CUQGKSPZG","6","3","1","0","1","18057","2017-09-13 13:44:09","86"
"A2X2OS8NNDMJY0","caus_thomas_ss_v1","34HJIJKLP5X4POSU88U8G86Z1DQV4V","5","0","2","1","0","6028","2017-09-13 13:44:09","87"
"A23VM3SZWYATBO","caus_thomas_ss_v1","3OXV7EAXLERYS2UP7MHHUBYU6K436S","4","2","3","0","0","7033","2017-09-13 13:44:12","88"
"A3EEMZ0K3T47QZ","caus_thomas_ss_v1","3TGOYF991XN3T7X9IOBLXQ2AMJ5UUS","1","1","2","1","1","9813","2017-09-13 13:44:12","89"
"A33QX0QXEX943S","caus_thomas_ss_v1","3WS1NTTKEYDYU3O3PS22MJD0W7N0FX","1","0","0","1","0","21691","2017-09-13 13:44:13","90"
"A2X2OS8NNDMJY0","caus_thomas_ss_v1","34HJIJKLP5X4POSU88U8G86Z1DQV4V","3","2","3","0","0","2909","2017-09-13 13:44:13","91"
"AHSQOWJG4HA3S","caus_thomas_ss_v1","39LNWE0K4UXYKG29O7M7ENEZSOIIU8","3","2","0","0","0","66416","2017-09-13 13:44:16","92"
"A2IGPW784OFV3D","caus_thomas_ss_v1","3QXNC7EIPIWPTTXQM62ACNRPT9S095","5","3","0","0","1","80832","2017-09-13 13:44:18","93"
"A1TARNH07A75CG","caus_thomas_ss_v1","3AWETUDC92TF6FWJUULFVFTEU6XIZX","2","0","1","1","0","9795","2017-09-13 13:44:19","94"
"A1CZU3RMLIJDLP","caus_thomas_ss_v1","34MAJL3QP4OKDFQBOYO2XDEGATY347","0","1","1","1","1","26459","2017-09-13 13:44:19","95"
"A3Q1EZDNIUK41P","caus_thomas_ss_v1","3OS46CRSLF0I4BW8RWNND6QDX4WV6G","8","3","0","0","1","46494","2017-09-13 13:44:19","96"
"A2XMFTY9WB05U6","caus_thomas_ss_v1","34S9DKFK73Q7FQX5VOWOMGGTABNNYR","3","1","0","1","1","30270","2017-09-13 13:44:21","97"
"A1ZO9R72DWQRZ1","caus_thomas_ss_v1","339ANSOTR53KHKXXUTI58051QXKIKB","8","3","1","0","1","20306","2017-09-13 13:44:21","98"
"A38TZK07ON180S","caus_thomas_ss_v1","3JV9LGBJWTFPBKCH2XAVU59UVP2GO1","4","2","0","0","0","91623","2017-09-13 13:44:21","99"
"AHSQOWJG4HA3S","caus_thomas_ss_v1","39LNWE0K4UXYKG29O7M7ENEZSOIIU8","5","1","1","1","1","4773","2017-09-13 13:44:22","100"
"A20EU0UH5K3VGE","caus_thomas_ss_v1","3WETL7AQWT929YUB237C25KUAPT35C","5","0","2","1","0","12619","2017-09-13 13:44:22","101"
"A1C59M3HPCO503","caus_thomas_ss_v1","3JBT3HLQF837N1JN7PBZ4CUQGKSPZG","0","0","2","1","0","12518","2017-09-13 13:44:22","102"
"AADRVG2QVZH75","caus_thomas_ss_v1","3IKZ72A5B4H1FZGAQY40XV9D40XNFU","0","2","0","0","0","65357","2017-09-13 13:44:22","103"
"AFEMLCPEI61GB","caus_thomas_ss_v1","3SNLUL3WO4O0AHAF9AJK636R9SCLUP","0","0","2","1","0","14763","2017-09-13 13:44:24","104"
"A87D3K9YVKTQ7","caus_thomas_ss_v1","3IGI0VL647LVLCT3P1NQKPIRW1ONOG","6","1","0","1","1","5232","2017-09-13 13:44:24","105"
"A1TARNH07A75CG","caus_thomas_ss_v1","3AWETUDC92TF6FWJUULFVFTEU6XIZX","0","3","2","0","1","4716","2017-09-13 13:44:25","106"
"A3EEMZ0K3T47QZ","caus_thomas_ss_v1","3TGOYF991XN3T7X9IOBLXQ2AMJ5UUS","2","3","3","0","1","11373","2017-09-13 13:44:25","107"
"AHSQOWJG4HA3S","caus_thomas_ss_v1","39LNWE0K4UXYKG29O7M7ENEZSOIIU8","6","3","2","0","1","3104","2017-09-13 13:44:26","108"
"A2XMFTY9WB05U6","caus_thomas_ss_v1","34S9DKFK73Q7FQX5VOWOMGGTABNNYR","5","2","1","0","0","4346","2017-09-13 13:44:26","109"
"A6B8DOH3KV5SL","caus_thomas_ss_v1","358010RM5EUVNQG4SJWDDJ3XU8VXVC","7","2","1","0","0","19282","2017-09-13 13:44:27","110"
"AF9NG1PF59D1U","caus_thomas_ss_v1","30X31N5D63R3ZLR7NEZUIO8SUJSSAY","4","0","2","1","0","18102","2017-09-13 13:44:27","111"
"A33QX0QXEX943S","caus_thomas_ss_v1","3WS1NTTKEYDYU3O3PS22MJD0W7N0FX","4","2","1","0","0","13695","2017-09-13 13:44:28","112"
"AOW42H2327VRA","caus_thomas_ss_v1","3MAOD8E57QBIFL7VQSAM329K85TXNV","4","0","0","1","0","58320","2017-09-13 13:44:29","113"
"A1ZO9R72DWQRZ1","caus_thomas_ss_v1","339ANSOTR53KHKXXUTI58051QXKIKB","4","2","2","0","0","7068","2017-09-13 13:44:29","114"
"A2XMFTY9WB05U6","caus_thomas_ss_v1","34S9DKFK73Q7FQX5VOWOMGGTABNNYR","6","0","2","1","0","3024","2017-09-13 13:44:30","115"
"A87D3K9YVKTQ7","caus_thomas_ss_v1","3IGI0VL647LVLCT3P1NQKPIRW1ONOG","3","0","1","1","0","5207","2017-09-13 13:44:31","116"
"A1C59M3HPCO503","caus_thomas_ss_v1","3JBT3HLQF837N1JN7PBZ4CUQGKSPZG","4","1","3","1","1","9036","2017-09-13 13:44:32","117"
"A25CAT0W9W97Z8","caus_thomas_ss_v1","3I02618YA07Q12PD12CRNKFBE2DPUR","5","1","0","1","1","34737","2017-09-13 13:44:33","118"
"A38TZK07ON180S","caus_thomas_ss_v1","3JV9LGBJWTFPBKCH2XAVU59UVP2GO1","2","3","1","0","1","11352","2017-09-13 13:44:33","119"
"A1TARNH07A75CG","caus_thomas_ss_v1","3AWETUDC92TF6FWJUULFVFTEU6XIZX","4","1","3","1","1","7871","2017-09-13 13:44:33","120"
"A2IGPW784OFV3D","caus_thomas_ss_v1","3QXNC7EIPIWPTTXQM62ACNRPT9S095","2","0","1","1","0","15226","2017-09-13 13:44:34","121"
"AFEMLCPEI61GB","caus_thomas_ss_v1","3SNLUL3WO4O0AHAF9AJK636R9SCLUP","0","1","3","1","1","9213","2017-09-13 13:44:34","122"
"A39ROW50DWRRKT","caus_thomas_ss_v1","32RIADZISS5OXWBQEDP35LMS29WS4N","7","0","0","1","0","15211","2017-09-13 13:44:35","123"
"A3NTFN1UM98L38","caus_thomas_ss_v1","3Y9N9SS8LYCXDB94H9PV0H8MN6R3DK","8","3","0","0","1","23684","2017-09-13 13:44:35","124"
"AF9NG1PF59D1U","caus_thomas_ss_v1","30X31N5D63R3ZLR7NEZUIO8SUJSSAY","4","2","3","0","0","7254","2017-09-13 13:44:36","125"
"A2XMFTY9WB05U6","caus_thomas_ss_v1","34S9DKFK73Q7FQX5VOWOMGGTABNNYR","6","3","3","0","1","6374","2017-09-13 13:44:37","126"
"A87D3K9YVKTQ7","caus_thomas_ss_v1","3IGI0VL647LVLCT3P1NQKPIRW1ONOG","8","2","2","0","0","5773","2017-09-13 13:44:37","127"
"A1ZO9R72DWQRZ1","caus_thomas_ss_v1","339ANSOTR53KHKXXUTI58051QXKIKB","6","1","3","1","1","8788","2017-09-13 13:44:39","128"
"A18E19QXO73YM4","caus_thomas_ss_v1","3G0WWMR1UVLY6O6J4EFU9UDRB26NQO","2","3","1","0","1","30491","2017-09-13 13:44:39","129"
"A1YBX7P5PY8LL","caus_thomas_ss_v1","3FE7TXL1LIO2H2HQIVHAH6AT07FQ20","5","0","0","1","0","51009","2017-09-13 13:44:39","130"
"A3Q1EZDNIUK41P","caus_thomas_ss_v1","3OS46CRSLF0I4BW8RWNND6QDX4WV6G","8","0","1","1","0","18757","2017-09-13 13:44:39","131"
"A2ET3KM3IE33MM","caus_thomas_ss_v1","38SKSKU7R1YV1QFFFTU6N0IGFXPLIH","7","1","0","1","1","40248","2017-09-13 13:44:40","132"
"A1CZU3RMLIJDLP","caus_thomas_ss_v1","34MAJL3QP4OKDFQBOYO2XDEGATY347","0","0","2","1","0","20454","2017-09-13 13:44:40","133"
"A2YE7NBCK14VAQ","caus_thomas_ss_v1","3FFJ6VRIL1PI4UQTQ08NPGQSCZF0IO","5","3","0","0","1","54072","2017-09-13 13:44:42","134"
"A39P7J60DY4WLU","caus_thomas_ss_v1","3KRVW3HTZNM41M0WKHPZRF3SO0HSMI","0","0","0","1","0","63368","2017-09-13 13:44:42","135"
"A20EU0UH5K3VGE","caus_thomas_ss_v1","3WETL7AQWT929YUB237C25KUAPT35C","3","1","3","1","1","20040","2017-09-13 13:44:43","136"
"A2YLSDVP8Z0ZMV","caus_thomas_ss_v1","3FPRZHYEPY8J7S9Q8UPP63ETNDUV3A","1","1","1","1","1","43744","2017-09-13 13:44:44","137"
"A39ROW50DWRRKT","caus_thomas_ss_v1","32RIADZISS5OXWBQEDP35LMS29WS4N","7","1","1","1","1","8831","2017-09-13 13:44:45","138"
"A38TZK07ON180S","caus_thomas_ss_v1","3JV9LGBJWTFPBKCH2XAVU59UVP2GO1","3","1","2","1","1","10322","2017-09-13 13:44:45","139"
"A3NTFN1UM98L38","caus_thomas_ss_v1","3Y9N9SS8LYCXDB94H9PV0H8MN6R3DK","8","2","1","0","0","9175","2017-09-13 13:44:45","140"
"AADRVG2QVZH75","caus_thomas_ss_v1","3IKZ72A5B4H1FZGAQY40XV9D40XNFU","8","3","1","0","1","22039","2017-09-13 13:44:45","141"
"A2IGPW784OFV3D","caus_thomas_ss_v1","3QXNC7EIPIWPTTXQM62ACNRPT9S095","4","2","2","0","0","12117","2017-09-13 13:44:47","142"
"A87D3K9YVKTQ7","caus_thomas_ss_v1","3IGI0VL647LVLCT3P1NQKPIRW1ONOG","8","3","3","0","1","8823","2017-09-13 13:44:47","143"
"A6B8DOH3KV5SL","caus_thomas_ss_v1","358010RM5EUVNQG4SJWDDJ3XU8VXVC","8","3","2","0","1","19613","2017-09-13 13:44:48","144"
"A33QX0QXEX943S","caus_thomas_ss_v1","3WS1NTTKEYDYU3O3PS22MJD0W7N0FX","1","3","2","0","1","19062","2017-09-13 13:44:48","145"
"A2S4BU23GT93ZD","caus_thomas_ss_v1","3C5W7UE9CFRCX3MVERVMQNKK3FJXMV","7","2","0","0","0","110428","2017-09-13 13:44:48","146"
"A241PV6A122I5X","caus_thomas_ss_v1","33CID57104UGBNXWUQNJJUGRWFT3L0","6","2","0","0","0","31362","2017-09-13 13:44:48","147"
"A771BLWJLMWYY","caus_thomas_ss_v1","34QN5IT0TZSPFOEGHEWWCRWE93A08G","8","1","0","1","1","23346","2017-09-13 13:44:48","148"
"A25CAT0W9W97Z8","caus_thomas_ss_v1","3I02618YA07Q12PD12CRNKFBE2DPUR","7","2","1","0","0","15082","2017-09-13 13:44:49","149"
"A38TZK07ON180S","caus_thomas_ss_v1","3JV9LGBJWTFPBKCH2XAVU59UVP2GO1","4","0","3","1","0","5218","2017-09-13 13:44:51","150"
"A3Q1EZDNIUK41P","caus_thomas_ss_v1","3OS46CRSLF0I4BW8RWNND6QDX4WV6G","8","2","2","0","0","10604","2017-09-13 13:44:51","151"
"A39ROW50DWRRKT","caus_thomas_ss_v1","32RIADZISS5OXWBQEDP35LMS29WS4N","8","3","2","0","1","5754","2017-09-13 13:44:51","152"
"A7BJQT4AKDHAO","caus_thomas_ss_v1","3TR2532VIPV9DGWEA794AIFJ2HPJ6J","7","2","0","0","0","49439","2017-09-13 13:44:52","153"
"A2DABB2TUS8ZDH","caus_thomas_ss_v1","3FTOP5WARFPEZ5AZ8ITN1H5SPE3J0I","1","1","0","1","1","43385","2017-09-13 13:44:53","154"
"A29U4ZQRLMIB61","caus_thomas_ss_v1","3VW04L3ZLT7NRFLZSYXV140IAJ3XXF","4","3","0","0","1","33155","2017-09-13 13:44:54","155"
"AOW42H2327VRA","caus_thomas_ss_v1","3MAOD8E57QBIFL7VQSAM329K85TXNV","5","2","1","0","0","25614","2017-09-13 13:44:55","156"
"A3IR7DFEKLLLO","caus_thomas_ss_v1","3FE2ERCCZX9VOX5G5G0IOENMWGPPOE","4","0","0","1","0","23065","2017-09-13 13:44:56","157"
"A39P7J60DY4WLU","caus_thomas_ss_v1","3KRVW3HTZNM41M0WKHPZRF3SO0HSMI","0","1","1","1","1","15250","2017-09-13 13:44:58","158"
"AADRVG2QVZH75","caus_thomas_ss_v1","3IKZ72A5B4H1FZGAQY40XV9D40XNFU","4","0","2","1","0","13153","2017-09-13 13:44:59","159"
"A39ROW50DWRRKT","caus_thomas_ss_v1","32RIADZISS5OXWBQEDP35LMS29WS4N","6","2","3","0","0","6882","2017-09-13 13:44:59","160"
"A18E19QXO73YM4","caus_thomas_ss_v1","3G0WWMR1UVLY6O6J4EFU9UDRB26NQO","0","2","2","0","0","20200","2017-09-13 13:45:00","161"
"A3NTFN1UM98L38","caus_thomas_ss_v1","3Y9N9SS8LYCXDB94H9PV0H8MN6R3DK","8","1","2","1","1","13769","2017-09-13 13:45:00","162"
"A1CZU3RMLIJDLP","caus_thomas_ss_v1","34MAJL3QP4OKDFQBOYO2XDEGATY347","0","2","3","0","0","19367","2017-09-13 13:45:01","163"
"A241PV6A122I5X","caus_thomas_ss_v1","33CID57104UGBNXWUQNJJUGRWFT3L0","6","3","1","0","1","12070","2017-09-13 13:45:01","164"
"A3Q1EZDNIUK41P","caus_thomas_ss_v1","3OS46CRSLF0I4BW8RWNND6QDX4WV6G","8","1","3","1","1","9886","2017-09-13 13:45:02","165"
"A25CAT0W9W97Z8","caus_thomas_ss_v1","3I02618YA07Q12PD12CRNKFBE2DPUR","2","0","2","1","0","11618","2017-09-13 13:45:02","166"
"A2S4BU23GT93ZD","caus_thomas_ss_v1","3C5W7UE9CFRCX3MVERVMQNKK3FJXMV","8","3","1","0","1","14306","2017-09-13 13:45:03","167"
"A1YBX7P5PY8LL","caus_thomas_ss_v1","3FE7TXL1LIO2H2HQIVHAH6AT07FQ20","4","3","1","0","1","23506","2017-09-13 13:45:03","168"
"A28LOT01MYVYYJ
","caus_thomas_ss_v1","3IFS6Q0HJIKI53A5Z2R7ZMWB7RXSI2","6","0","0","1","0","54582","2017-09-13 13:45:04","169"
"A3IR7DFEKLLLO","caus_thomas_ss_v1","3FE2ERCCZX9VOX5G5G0IOENMWGPPOE","7","3","1","0","1","7099","2017-09-13 13:45:04","170"
"A1CHC8M7CWC254","caus_thomas_ss_v1","3R8YZBNQ9HJ933EWO7Y5DXR1BN1Q7G","6","3","0","0","1","11447","2017-09-13 13:45:07","171"
"A3NTFN1UM98L38","caus_thomas_ss_v1","3Y9N9SS8LYCXDB94H9PV0H8MN6R3DK","8","0","3","1","0","5795","2017-09-13 13:45:07","172"
"A2IGPW784OFV3D","caus_thomas_ss_v1","3QXNC7EIPIWPTTXQM62ACNRPT9S095","1","1","3","1","1","18415","2017-09-13 13:45:07","173"
"A6B8DOH3KV5SL","caus_thomas_ss_v1","358010RM5EUVNQG4SJWDDJ3XU8VXVC","7","1","3","1","1","18553","2017-09-13 13:45:07","174"
"A2ET3KM3IE33MM","caus_thomas_ss_v1","38SKSKU7R1YV1QFFFTU6N0IGFXPLIH","7","3","1","0","1","26745","2017-09-13 13:45:07","175"
"A3MBPV2HD80G1E","caus_thomas_ss_v1","3M1CVSFP606RM5CUVAAPNOTRCV7QA7","6","3","0","0","1","63312","2017-09-13 13:45:08","176"
"A19BMRBO5UAD6H","caus_thomas_ss_v1","3X87C8JFV6CVM1YOCAWG8ONXY1ESQ5","7","3","0","0","1","37669","2017-09-13 13:45:08","177"
"A3AT9S1CF9QV4K","caus_thomas_ss_v1","31IBVUNM9S0EN4PJSPQR7C3QQ3ZVFJ","5","3","0","0","1","53331","2017-09-13 13:45:08","178"
"A771BLWJLMWYY","caus_thomas_ss_v1","34QN5IT0TZSPFOEGHEWWCRWE93A08G","4","0","1","1","0","20102","2017-09-13 13:45:10","179"
"AADRVG2QVZH75","caus_thomas_ss_v1","3IKZ72A5B4H1FZGAQY40XV9D40XNFU","7","1","3","1","1","9528","2017-09-13 13:45:10","180"
"A2YE7NBCK14VAQ","caus_thomas_ss_v1","3FFJ6VRIL1PI4UQTQ08NPGQSCZF0IO","4","2","1","0","0","27778","2017-09-13 13:45:11","181"
"AOW42H2327VRA","caus_thomas_ss_v1","3MAOD8E57QBIFL7VQSAM329K85TXNV","7","3","2","0","1","15128","2017-09-13 13:45:11","182"
"A3IR7DFEKLLLO","caus_thomas_ss_v1","3FE2ERCCZX9VOX5G5G0IOENMWGPPOE","6","2","2","0","0","6454","2017-09-13 13:45:11","183"
"A1CHC8M7CWC254","caus_thomas_ss_v1","3R8YZBNQ9HJ933EWO7Y5DXR1BN1Q7G","5","1","1","1","1","4420","2017-09-13 13:45:12","184"
"A2DABB2TUS8ZDH","caus_thomas_ss_v1","3FTOP5WARFPEZ5AZ8ITN1H5SPE3J0I","1","2","1","0","0","18333","2017-09-13 13:45:12","185"
"A25CAT0W9W97Z8","caus_thomas_ss_v1","3I02618YA07Q12PD12CRNKFBE2DPUR","8","3","3","0","1","9147","2017-09-13 13:45:12","186"
"A241PV6A122I5X","caus_thomas_ss_v1","33CID57104UGBNXWUQNJJUGRWFT3L0","6","0","2","1","0","10828","2017-09-13 13:45:13","187"
"A29U4ZQRLMIB61","caus_thomas_ss_v1","3VW04L3ZLT7NRFLZSYXV140IAJ3XXF","4","2","1","0","0","18007","2017-09-13 13:45:13","188"
"A1U7O93JY3WFMU","caus_thomas_ss_v1","3X4JMASXCMA8HMCNKQG63TMFH9V0BF","5","2","0","0","0","63727","2017-09-13 13:45:14","189"
"A1APYLD4DUK33J","caus_thomas_ss_v1","3K9FOBBF2HKNFRQ6C97YS8EX1WJNLZ","0","1","0","1","1","25460","2017-09-13 13:45:14","190"
"A1YBX7P5PY8LL","caus_thomas_ss_v1","3FE7TXL1LIO2H2HQIVHAH6AT07FQ20","4","2","2","0","0","9594","2017-09-13 13:45:14","191"
"A2YLSDVP8Z0ZMV","caus_thomas_ss_v1","3FPRZHYEPY8J7S9Q8UPP63ETNDUV3A","6","2","2","0","0","29227","2017-09-13 13:45:14","192"
"A18E19QXO73YM4","caus_thomas_ss_v1","3G0WWMR1UVLY6O6J4EFU9UDRB26NQO","0","0","3","1","0","15494","2017-09-13 13:45:16","193"
"A3J0PZ3P3J90DU","caus_thomas_ss_v1","3OLQQLKKNSQDQVPTGPS2M67WJFDJE4","8","0","0","1","0","49821","2017-09-13 13:45:16","194"
"A3AD1WTZEZNFQW","caus_thomas_ss_v1","3F0BG9B9MPOIC55IFHFZQJU3AWIY7R","8","2","0","0","0","25644","2017-09-13 13:45:18","195"
"A2ET3KM3IE33MM","caus_thomas_ss_v1","38SKSKU7R1YV1QFFFTU6N0IGFXPLIH","5","2","2","0","0","9878","2017-09-13 13:45:18","196"
"A241PV6A122I5X","caus_thomas_ss_v1","33CID57104UGBNXWUQNJJUGRWFT3L0","5","1","3","1","1","4304","2017-09-13 13:45:18","197"
"A3IR7DFEKLLLO","caus_thomas_ss_v1","3FE2ERCCZX9VOX5G5G0IOENMWGPPOE","4","1","3","1","1","6347","2017-09-13 13:45:19","198"
"A771BLWJLMWYY","caus_thomas_ss_v1","34QN5IT0TZSPFOEGHEWWCRWE93A08G","0","2","2","0","0","8771","2017-09-13 13:45:19","199"
"A2DABB2TUS8ZDH","caus_thomas_ss_v1","3FTOP5WARFPEZ5AZ8ITN1H5SPE3J0I","1","3","2","0","1","8375","2017-09-13 13:45:21","200"
"AYRTRVCO1W3SP","caus_thomas_ss_v1","3GD6L00D3SY472127YAFVEGJY04M1S","3","0","0","1","0","26546","2017-09-13 13:45:22","201"
"A2SISDKXH7PVVW","caus_thomas_ss_v1","3TVRFO09GKGSRL4AEFU7QA5V3ATLXH","1","1","0","1","1","81516","2017-09-13 13:45:22","202"
"A28LOT01MYVYYJ
","caus_thomas_ss_v1","3IFS6Q0HJIKI53A5Z2R7ZMWB7RXSI2","2","2","1","0","0","18005","2017-09-13 13:45:23","203"
"A19BMRBO5UAD6H","caus_thomas_ss_v1","3X87C8JFV6CVM1YOCAWG8ONXY1ESQ5","7","0","1","1","0","15334","2017-09-13 13:45:24","204"
"A3MBPV2HD80G1E","caus_thomas_ss_v1","3M1CVSFP606RM5CUVAAPNOTRCV7QA7","4","0","1","1","0","15817","2017-09-13 13:45:24","205"
"A33QX0QXEX943S","caus_thomas_ss_v1","3WS1NTTKEYDYU3O3PS22MJD0W7N0FX","3","1","3","1","1","36504","2017-09-13 13:45:25","206"
"A1CHC8M7CWC254","caus_thomas_ss_v1","3R8YZBNQ9HJ933EWO7Y5DXR1BN1Q7G","2","2","2","0","0","12270","2017-09-13 13:45:25","207"
"A1YBX7P5PY8LL","caus_thomas_ss_v1","3FE7TXL1LIO2H2HQIVHAH6AT07FQ20","6","1","3","1","1","10837","2017-09-13 13:45:26","208"
"A2ET3KM3IE33MM","caus_thomas_ss_v1","38SKSKU7R1YV1QFFFTU6N0IGFXPLIH","4","0","3","1","0","6633","2017-09-13 13:45:26","209"
"A7BJQT4AKDHAO","caus_thomas_ss_v1","3TR2532VIPV9DGWEA794AIFJ2HPJ6J","1","3","1","0","1","33119","2017-09-13 13:45:26","210"
"AOW42H2327VRA","caus_thomas_ss_v1","3MAOD8E57QBIFL7VQSAM329K85TXNV","5","1","3","1","1","14593","2017-09-13 13:45:27","211"
"A1DDBGQDMZZ1VW","caus_thomas_ss_v1","3JMSRU9HQIVMHQPNXE6LPUIQE2KVE1","3","2","0","0","0","72732","2017-09-13 13:45:29","212"
"A29U4ZQRLMIB61","caus_thomas_ss_v1","3VW04L3ZLT7NRFLZSYXV140IAJ3XXF","0","1","2","1","1","14716","2017-09-13 13:45:29","213"
"A771BLWJLMWYY","caus_thomas_ss_v1","34QN5IT0TZSPFOEGHEWWCRWE93A08G","0","3","3","0","1","9164","2017-09-13 13:45:30","214"
"A2S4BU23GT93ZD","caus_thomas_ss_v1","3C5W7UE9CFRCX3MVERVMQNKK3FJXMV","6","1","2","1","1","26467","2017-09-13 13:45:31","215"
"A1CHC8M7CWC254","caus_thomas_ss_v1","3R8YZBNQ9HJ933EWO7Y5DXR1BN1Q7G","4","0","3","1","0","5595","2017-09-13 13:45:32","216"
"A2Z1JS9WIN9BMC","caus_thomas_ss_v1","388U7OUMF72VXTTCGN2W38RJZVY0RS","5","2","0","0","0","36490","2017-09-13 13:45:32","217"
"AIJEWX92UW722","caus_thomas_ss_v1","3URFVVM165JKF6RJOBATEIHPO1KUZH","7","3","0","0","1","16092","2017-09-13 13:45:33","218"
"A1APYLD4DUK33J","caus_thomas_ss_v1","3K9FOBBF2HKNFRQ6C97YS8EX1WJNLZ","4","3","1","0","1","18349","2017-09-13 13:45:33","219"
"A3AD1WTZEZNFQW","caus_thomas_ss_v1","3F0BG9B9MPOIC55IFHFZQJU3AWIY7R","5","1","1","1","1","14069","2017-09-13 13:45:33","220"
"A3AT9S1CF9QV4K","caus_thomas_ss_v1","31IBVUNM9S0EN4PJSPQR7C3QQ3ZVFJ","5","0","1","1","0","25910","2017-09-13 13:45:35","221"
"A320QA9HJFUOZO","caus_thomas_ss_v1","3H7Z272LX78NIC2JSOKQWXJS1BKPLX","6","3","0","0","1","159001","2017-09-13 13:45:35","222"
"A19BMRBO5UAD6H","caus_thomas_ss_v1","3X87C8JFV6CVM1YOCAWG8ONXY1ESQ5","4","1","2","1","1","9893","2017-09-13 13:45:35","223"
"AYRTRVCO1W3SP","caus_thomas_ss_v1","3GD6L00D3SY472127YAFVEGJY04M1S","5","3","1","0","1","12875","2017-09-13 13:45:36","224"
"A2YE7NBCK14VAQ","caus_thomas_ss_v1","3FFJ6VRIL1PI4UQTQ08NPGQSCZF0IO","6","0","2","1","0","23730","2017-09-13 13:45:36","225"
"A28LOT01MYVYYJ
","caus_thomas_ss_v1","3IFS6Q0HJIKI53A5Z2R7ZMWB7RXSI2","1","3","2","0","1","12737","2017-09-13 13:45:36","226"
"A2S4BU23GT93ZD","caus_thomas_ss_v1","3C5W7UE9CFRCX3MVERVMQNKK3FJXMV","5","0","3","1","0","7385","2017-09-13 13:45:39","227"
"A2DABB2TUS8ZDH","caus_thomas_ss_v1","3FTOP5WARFPEZ5AZ8ITN1H5SPE3J0I","1","0","3","1","0","8456","2017-09-13 13:45:40","228"
"A28LOT01MYVYYJ
","caus_thomas_ss_v1","3IFS6Q0HJIKI53A5Z2R7ZMWB7RXSI2","1","1","3","1","1","3313","2017-09-13 13:45:41","229"
"A3MBPV2HD80G1E","caus_thomas_ss_v1","3M1CVSFP606RM5CUVAAPNOTRCV7QA7","2","2","2","0","0","15649","2017-09-13 13:45:41","230"
"A29U4ZQRLMIB61","caus_thomas_ss_v1","3VW04L3ZLT7NRFLZSYXV140IAJ3XXF","0","0","3","1","0","12575","2017-09-13 13:45:43","231"
"AIJEWX92UW722","caus_thomas_ss_v1","3URFVVM165JKF6RJOBATEIHPO1KUZH","5","0","1","1","0","10827","2017-09-13 13:45:45","232"
"A19BMRBO5UAD6H","caus_thomas_ss_v1","3X87C8JFV6CVM1YOCAWG8ONXY1ESQ5","4","2","3","0","0","10101","2017-09-13 13:45:46","233"
"A3EF8GZ0SK81BS","caus_thomas_ss_v1","3TK8OJTYM1MQEHED6SMWJ6HUS9MVPM","5","0","0","1","0","85301","2017-09-13 13:45:47","234"
"A1APYLD4DUK33J","caus_thomas_ss_v1","3K9FOBBF2HKNFRQ6C97YS8EX1WJNLZ","1","2","2","0","0","12713","2017-09-13 13:45:47","235"
"A26JIHKBORI9X","caus_thomas_ss_v1","3TXMY6UCAEPFFK9SFO6GTJJFCYSQC9","7","2","0","0","0","23610","2017-09-13 13:45:48","236"
"AZIY6IFOS4CVC","caus_thomas_ss_v1","3K5TEWLKGVCYXVR9TXWCA9GI6VRIVX","6","0","0","1","0","46802","2017-09-13 13:45:49","237"
"A1U7O93JY3WFMU","caus_thomas_ss_v1","3X4JMASXCMA8HMCNKQG63TMFH9V0BF","6","1","1","1","1","34901","2017-09-13 13:45:50","238"
"A3J0PZ3P3J90DU","caus_thomas_ss_v1","3OLQQLKKNSQDQVPTGPS2M67WJFDJE4","6","1","1","1","1","32279","2017-09-13 13:45:50","239"
"ASTDBTVY3WP1K","caus_thomas_ss_v1","3Y4W8Q93LZLHPKBN1JV1JC05EQJVD8","7","3","0","0","1","24869","2017-09-13 13:45:51","240"
"A2SISDKXH7PVVW","caus_thomas_ss_v1","3TVRFO09GKGSRL4AEFU7QA5V3ATLXH","0","2","1","0","0","28107","2017-09-13 13:45:51","241"
"A2DOBD99DXD0K8","caus_thomas_ss_v1","3RU7GD8VPOUAMPX9CXHR8JXNT5SPSB","8","2","0","0","0","16152","2017-09-13 13:45:51","242"
"A7BJQT4AKDHAO","caus_thomas_ss_v1","3TR2532VIPV9DGWEA794AIFJ2HPJ6J","5","1","2","1","1","24394","2017-09-13 13:45:52","243"
"A2YLSDVP8Z0ZMV","caus_thomas_ss_v1","3FPRZHYEPY8J7S9Q8UPP63ETNDUV3A","6","3","3","0","1","37029","2017-09-13 13:45:52","244"
"A327T97T92CZME","caus_thomas_ss_v1","3D3VGR7TA0GRELS9ZAKF56PQ27I3RQ","3","1","0","1","1","25558","2017-09-13 13:45:52","245"
"AIJEWX92UW722","caus_thomas_ss_v1","3URFVVM165JKF6RJOBATEIHPO1KUZH","6","1","2","1","1","7219","2017-09-13 13:45:53","246"
"A3SOJWB6AZWZV9
","caus_thomas_ss_v1","37ZHEEHM6WNHW28UQWM90PYQ1VO37R","1","2","0","0","0","17201","2017-09-13 13:45:54","247"
"A3MBPV2HD80G1E","caus_thomas_ss_v1","3M1CVSFP606RM5CUVAAPNOTRCV7QA7","6","1","3","1","1","11842","2017-09-13 13:45:54","248"
"AYRTRVCO1W3SP","caus_thomas_ss_v1","3GD6L00D3SY472127YAFVEGJY04M1S","4","2","2","0","0","17844","2017-09-13 13:45:54","249"
"A1274B3RL8IZ8H","caus_thomas_ss_v1","3AMW0RGHOD3D6C5441059PNH66KNPX","6","3","0","0","1","28774","2017-09-13 13:45:55","250"
"A2ECKFN36SS0J7","caus_thomas_ss_v1","3FUI0JHJPXZZVJ77OKJJN8MAWT233M","7","0","0","1","0","57763","2017-09-13 13:45:55","251"
"A3AD1WTZEZNFQW","caus_thomas_ss_v1","3F0BG9B9MPOIC55IFHFZQJU3AWIY7R","6","0","2","1","0","21080","2017-09-13 13:45:55","252"
"A2Z1JS9WIN9BMC","caus_thomas_ss_v1","388U7OUMF72VXTTCGN2W38RJZVY0RS","6","1","1","1","1","22561","2017-09-13 13:45:56","253"
"A1DDBGQDMZZ1VW","caus_thomas_ss_v1","3JMSRU9HQIVMHQPNXE6LPUIQE2KVE1","4","1","1","1","1","26914","2017-09-13 13:45:56","254"
"A3AT9S1CF9QV4K","caus_thomas_ss_v1","31IBVUNM9S0EN4PJSPQR7C3QQ3ZVFJ","0","2","2","0","0","21523","2017-09-13 13:45:57","255"
"AIJEWX92UW722","caus_thomas_ss_v1","3URFVVM165JKF6RJOBATEIHPO1KUZH","4","2","3","0","0","4499","2017-09-13 13:45:58","256"
"A320QA9HJFUOZO","caus_thomas_ss_v1","3H7Z272LX78NIC2JSOKQWXJS1BKPLX","5","1","1","1","1","22759","2017-09-13 13:45:59","257"
"A3EF8GZ0SK81BS","caus_thomas_ss_v1","3TK8OJTYM1MQEHED6SMWJ6HUS9MVPM","2","2","1","0","0","11567","2017-09-13 13:45:59","258"
"A1APYLD4DUK33J","caus_thomas_ss_v1","3K9FOBBF2HKNFRQ6C97YS8EX1WJNLZ","1","0","3","1","0","12531","2017-09-13 13:46:00","259"
"A3EPDU2O2JMR50","caus_thomas_ss_v1","31LM9EDVOLTHK1269OVLCT15X7ENJX","4","1","0","1","1","38681","2017-09-13 13:46:03","260"
"A26JIHKBORI9X","caus_thomas_ss_v1","3TXMY6UCAEPFFK9SFO6GTJJFCYSQC9","8","3","1","0","1","13451","2017-09-13 13:46:03","261"
"A2XMO68T3BJFFA
","caus_thomas_ss_v1","3IAS3U3I0FHFDWF1ZDKKMHFUE7EB29","6","1","0","1","1","24644","2017-09-13 13:46:04","262"
"A3LRZX8477TYYZ","caus_thomas_ss_v1","3BF51CHDTVBI8ZF9KIQ2P4PDCM00HV","8","2","0","0","0","114464","2017-09-13 13:46:04","263"
"A1IFIK8J49WBER","caus_thomas_ss_v1","3VA45EW49NOS75MEKEPSNI5OT0JO19","8","3","0","0","1","50020","2017-09-13 13:46:05","264"
"A2YE7NBCK14VAQ","caus_thomas_ss_v1","3FFJ6VRIL1PI4UQTQ08NPGQSCZF0IO","6","1","3","1","1","29042","2017-09-13 13:46:06","265"
"A3J0PZ3P3J90DU","caus_thomas_ss_v1","3OLQQLKKNSQDQVPTGPS2M67WJFDJE4","3","2","2","0","0","15211","2017-09-13 13:46:06","266"
"AJRY9ALX8069Y","caus_thomas_ss_v1","34Q075JO1XE74OUVITNHXH96VX410X","2","2","0","0","0","40316","2017-09-13 13:46:07","267"
"AZIY6IFOS4CVC","caus_thomas_ss_v1","3K5TEWLKGVCYXVR9TXWCA9GI6VRIVX","2","3","1","0","1","17548","2017-09-13 13:46:08","268"
"A3EF8GZ0SK81BS","caus_thomas_ss_v1","3TK8OJTYM1MQEHED6SMWJ6HUS9MVPM","2","3","2","0","1","8265","2017-09-13 13:46:08","269"
"A2DOBD99DXD0K8","caus_thomas_ss_v1","3RU7GD8VPOUAMPX9CXHR8JXNT5SPSB","6","1","1","1","1","16336","2017-09-13 13:46:09","270"
"A3SOJWB6AZWZV9
","caus_thomas_ss_v1","37ZHEEHM6WNHW28UQWM90PYQ1VO37R","1","1","1","1","1","14195","2017-09-13 13:46:09","271"
"A1U7O93JY3WFMU","caus_thomas_ss_v1","3X4JMASXCMA8HMCNKQG63TMFH9V0BF","7","3","2","0","1","18775","2017-09-13 13:46:09","272"
"ASTDBTVY3WP1K","caus_thomas_ss_v1","3Y4W8Q93LZLHPKBN1JV1JC05EQJVD8","4","1","1","1","1","18276","2017-09-13 13:46:10","273"
"A3AT9S1CF9QV4K","caus_thomas_ss_v1","31IBVUNM9S0EN4PJSPQR7C3QQ3ZVFJ","6","1","3","1","1","12585","2017-09-13 13:46:11","274"
"AYRTRVCO1W3SP","caus_thomas_ss_v1","3GD6L00D3SY472127YAFVEGJY04M1S","3","1","3","1","1","15538","2017-09-13 13:46:11","275"
"A3AD1WTZEZNFQW","caus_thomas_ss_v1","3F0BG9B9MPOIC55IFHFZQJU3AWIY7R","6","3","3","0","1","14761","2017-09-13 13:46:11","276"
"A26JIHKBORI9X","caus_thomas_ss_v1","3TXMY6UCAEPFFK9SFO6GTJJFCYSQC9","5","0","2","1","0","9592","2017-09-13 13:46:13","277"
"A3EF8GZ0SK81BS","caus_thomas_ss_v1","3TK8OJTYM1MQEHED6SMWJ6HUS9MVPM","7","1","3","1","1","3765","2017-09-13 13:46:13","278"
"A320QA9HJFUOZO","caus_thomas_ss_v1","3H7Z272LX78NIC2JSOKQWXJS1BKPLX","3","2","2","0","0","13758","2017-09-13 13:46:13","279"
"A2Z1JS9WIN9BMC","caus_thomas_ss_v1","388U7OUMF72VXTTCGN2W38RJZVY0RS","8","3","2","0","1","17296","2017-09-13 13:46:14","280"
"A327T97T92CZME","caus_thomas_ss_v1","3D3VGR7TA0GRELS9ZAKF56PQ27I3RQ","3","0","1","1","0","22134","2017-09-13 13:46:16","281"
"A1DDBGQDMZZ1VW","caus_thomas_ss_v1","3JMSRU9HQIVMHQPNXE6LPUIQE2KVE1","5","3","2","0","1","18454","2017-09-13 13:46:16","282"
"A2XMO68T3BJFFA
","caus_thomas_ss_v1","3IAS3U3I0FHFDWF1ZDKKMHFUE7EB29","2","2","1","0","0","12639","2017-09-13 13:46:18","283"
"A2DOBD99DXD0K8","caus_thomas_ss_v1","3RU7GD8VPOUAMPX9CXHR8JXNT5SPSB","8","3","2","0","1","7863","2017-09-13 13:46:18","284"
"AZIY6IFOS4CVC","caus_thomas_ss_v1","3K5TEWLKGVCYXVR9TXWCA9GI6VRIVX","5","1","2","1","1","9576","2017-09-13 13:46:18","285"
"A3OB6REG5CGHK1","caus_thomas_ss_v1","3MD9PLUKKIF7KG7ARAY70NPVG5RNZI","7","3","0","0","1","34477","2017-09-13 13:46:19","286"
"A26JIHKBORI9X","caus_thomas_ss_v1","3TXMY6UCAEPFFK9SFO6GTJJFCYSQC9","7","1","3","1","1","4371","2017-09-13 13:46:19","287"
"A3LRZX8477TYYZ","caus_thomas_ss_v1","3BF51CHDTVBI8ZF9KIQ2P4PDCM00HV","8","0","1","1","0","13879","2017-09-13 13:46:19","288"
"A3SOJWB6AZWZV9
","caus_thomas_ss_v1","37ZHEEHM6WNHW28UQWM90PYQ1VO37R","0","0","2","1","0","9479","2017-09-13 13:46:19","289"
"ASTDBTVY3WP1K","caus_thomas_ss_v1","3Y4W8Q93LZLHPKBN1JV1JC05EQJVD8","6","2","2","0","0","9349","2017-09-13 13:46:20","290"
"ATOP7IB7PX8WX","caus_thomas_ss_v1","3UN61F00HWQUS0FDDT88K3NAG395RI","4","1","0","1","1","32265","2017-09-13 13:46:23","291"
"A1IFIK8J49WBER","caus_thomas_ss_v1","3VA45EW49NOS75MEKEPSNI5OT0JO19","8","1","1","1","1","16867","2017-09-13 13:46:23","292"
"A3EPDU2O2JMR50","caus_thomas_ss_v1","31LM9EDVOLTHK1269OVLCT15X7ENJX","4","0","1","1","0","19425","2017-09-13 13:46:23","293"
"A7TI4X4LRGQA0","caus_thomas_ss_v1","336KAV9KYQTBQ48C95Y4USDVZGX2YG","7","0","0","1","0","24004","2017-09-13 13:46:23","294"
"A7BJQT4AKDHAO","caus_thomas_ss_v1","3TR2532VIPV9DGWEA794AIFJ2HPJ6J","6","0","3","1","0","30950","2017-09-13 13:46:24","295"
"A2ECKFN36SS0J7","caus_thomas_ss_v1","3FUI0JHJPXZZVJ77OKJJN8MAWT233M","7","2","1","0","0","27404","2017-09-13 13:46:24","296"
"A2SISDKXH7PVVW","caus_thomas_ss_v1","3TVRFO09GKGSRL4AEFU7QA5V3ATLXH","0","3","2","0","1","31988","2017-09-13 13:46:24","297"
"A3J0PZ3P3J90DU","caus_thomas_ss_v1","3OLQQLKKNSQDQVPTGPS2M67WJFDJE4","7","3","3","0","1","17775","2017-09-13 13:46:25","298"
"A2P76QVLSGJR45","caus_thomas_ss_v1","3MRNMEIQW57ETFZTNFTVW323NSHLDF","4","1","0","1","1","24580","2017-09-13 13:46:25","299"
"A2DOBD99DXD0K8","caus_thomas_ss_v1","3RU7GD8VPOUAMPX9CXHR8JXNT5SPSB","5","0","3","1","0","6880","2017-09-13 13:46:26","300"
"AZIY6IFOS4CVC","caus_thomas_ss_v1","3K5TEWLKGVCYXVR9TXWCA9GI6VRIVX","0","2","3","0","0","8182","2017-09-13 13:46:28","301"
"A327T97T92CZME","caus_thomas_ss_v1","3D3VGR7TA0GRELS9ZAKF56PQ27I3RQ","3","2","2","0","0","11026","2017-09-13 13:46:28","302"
"A320QA9HJFUOZO","caus_thomas_ss_v1","3H7Z272LX78NIC2JSOKQWXJS1BKPLX","2","0","3","1","0","13763","2017-09-13 13:46:28","303"
"ASTDBTVY3WP1K","caus_thomas_ss_v1","3Y4W8Q93LZLHPKBN1JV1JC05EQJVD8","5","0","3","1","0","7421","2017-09-13 13:46:29","304"
"A3LRZX8477TYYZ","caus_thomas_ss_v1","3BF51CHDTVBI8ZF9KIQ2P4PDCM00HV","8","3","2","0","1","9175","2017-09-13 13:46:29","305"
"A26ZENZ5G8AEGM","caus_thomas_ss_v1","345LHZDEDXTJUDKQ34FKAHCA96M3UU","6","3","0","0","1","34177","2017-09-13 13:46:29","306"
"A3SOJWB6AZWZV9
","caus_thomas_ss_v1","37ZHEEHM6WNHW28UQWM90PYQ1VO37R","0","3","3","0","1","11694","2017-09-13 13:46:32","307"
"A2Z1JS9WIN9BMC","caus_thomas_ss_v1","388U7OUMF72VXTTCGN2W38RJZVY0RS","7","0","3","1","0","17247","2017-09-13 13:46:32","308"
"A1U7O93JY3WFMU","caus_thomas_ss_v1","3X4JMASXCMA8HMCNKQG63TMFH9V0BF","4","0","3","1","0","22172","2017-09-13 13:46:33","309"
"A1DDBGQDMZZ1VW","caus_thomas_ss_v1","3JMSRU9HQIVMHQPNXE6LPUIQE2KVE1","3","0","3","1","0","17021","2017-09-13 13:46:34","310"
"A3EPDU2O2JMR50","caus_thomas_ss_v1","31LM9EDVOLTHK1269OVLCT15X7ENJX","4","3","2","0","1","10730","2017-09-13 13:46:35","311"
"A2P76QVLSGJR45","caus_thomas_ss_v1","3MRNMEIQW57ETFZTNFTVW323NSHLDF","8","3","1","0","1","10530","2017-09-13 13:46:37","312"
"A2SISDKXH7PVVW","caus_thomas_ss_v1","3TVRFO09GKGSRL4AEFU7QA5V3ATLXH","0","0","3","1","0","11492","2017-09-13 13:46:37","313"
"A3OB6REG5CGHK1","caus_thomas_ss_v1","3MD9PLUKKIF7KG7ARAY70NPVG5RNZI","5","0","1","1","0","17163","2017-09-13 13:46:37","314"
"AJRY9ALX8069Y","caus_thomas_ss_v1","34Q075JO1XE74OUVITNHXH96VX410X","2","1","1","1","1","28920","2017-09-13 13:46:37","315"
"ATOP7IB7PX8WX","caus_thomas_ss_v1","3UN61F00HWQUS0FDDT88K3NAG395RI","6","2","1","0","0","15919","2017-09-13 13:46:40","316"
"A3EXIUOGZVV132","caus_thomas_ss_v1","33TIN5LC04BMQOTBUEDJ4FL95M6Y93","0","0","0","1","0","33338","2017-09-13 13:46:41","317"
"A180J6JI4SB56X","caus_thomas_ss_v1","30H4UDGLT2J7OUK4S0L5WAYH1GAPMZ","8","1","0","1","1","21227","2017-09-13 13:46:42","318"
"A327T97T92CZME","caus_thomas_ss_v1","3D3VGR7TA0GRELS9ZAKF56PQ27I3RQ","6","3","3","0","1","13477","2017-09-13 13:46:42","319"
"A19L8SNH73AX1Z","caus_thomas_ss_v1","3X3OR7WPZZ12CK3267IFABO2C1L8LX","4","0","0","1","0","35935","2017-09-13 13:46:43","320"
"A3EPDU2O2JMR50","caus_thomas_ss_v1","31LM9EDVOLTHK1269OVLCT15X7ENJX","4","2","3","0","0","7310","2017-09-13 13:46:43","321"
"A2ECKFN36SS0J7","caus_thomas_ss_v1","3FUI0JHJPXZZVJ77OKJJN8MAWT233M","7","3","2","0","1","19074","2017-09-13 13:46:44","322"
"A2P76QVLSGJR45","caus_thomas_ss_v1","3MRNMEIQW57ETFZTNFTVW323NSHLDF","4","0","2","1","0","6326","2017-09-13 13:46:44","323"
"A610SH5RY1NG1","caus_thomas_ss_v1","3H7Z272LX78NIC2JSOKQWXJS1BKLPT","3","3","0","0","1","26180","2017-09-13 13:46:44","324"
"A7TI4X4LRGQA0","caus_thomas_ss_v1","336KAV9KYQTBQ48C95Y4USDVZGX2YG","3","1","1","1","1","21046","2017-09-13 13:46:45","325"
"A21ZXLGZ9OBHJV","caus_thomas_ss_v1","3OCHAWUVGOLH7FMSTFI6BASGEAOXKQ","8","1","1","1","1","189474","2017-09-13 13:46:46","326"
"A3OB6REG5CGHK1","caus_thomas_ss_v1","3MD9PLUKKIF7KG7ARAY70NPVG5RNZI","5","1","2","1","1","9261","2017-09-13 13:46:47","327"
"A26ZENZ5G8AEGM","caus_thomas_ss_v1","345LHZDEDXTJUDKQ34FKAHCA96M3UU","4","2","1","0","0","16880","2017-09-13 13:46:47","328"
"A1IFIK8J49WBER","caus_thomas_ss_v1","3VA45EW49NOS75MEKEPSNI5OT0JO19","4","0","2","1","0","23755","2017-09-13 13:46:47","329"
"A109FIVN79QNID","caus_thomas_ss_v1","3VAR3R6G1P2AI56ZJZY72SSW76Q8OE","5","2","0","0","0","30662","2017-09-13 13:46:49","330"
"A180J6JI4SB56X","caus_thomas_ss_v1","30H4UDGLT2J7OUK4S0L5WAYH1GAPMZ","8","3","1","0","1","9481","2017-09-13 13:46:52","331"
"A2P76QVLSGJR45","caus_thomas_ss_v1","3MRNMEIQW57ETFZTNFTVW323NSHLDF","5","2","3","0","0","7461","2017-09-13 13:46:52","332"
"A2V9JE42W9BXQ5","caus_thomas_ss_v1","3J2UYBXQQLD2BAVSOZZYSD0N38K600","7","1","0","1","1","30986","2017-09-13 13:46:55","333"
"A3OB6REG5CGHK1","caus_thomas_ss_v1","3MD9PLUKKIF7KG7ARAY70NPVG5RNZI","8","2","3","0","0","8004","2017-09-13 13:46:56","334"
"A610SH5RY1NG1","caus_thomas_ss_v1","3H7Z272LX78NIC2JSOKQWXJS1BKLPT","1","0","1","1","0","10741","2017-09-13 13:46:56","335"
"ATOP7IB7PX8WX","caus_thomas_ss_v1","3UN61F00HWQUS0FDDT88K3NAG395RI","5","3","2","0","1","16669","2017-09-13 13:46:57","336"
"A180J6JI4SB56X","caus_thomas_ss_v1","30H4UDGLT2J7OUK4S0L5WAYH1GAPMZ","5","0","2","1","0","4948","2017-09-13 13:46:58","337"
"A2LGWOP08DUIBD","caus_thomas_ss_v1","3WOKGM4L71HS0G1WOVLS9DMEO8E0OJ","4","2","0","0","0","134916","2017-09-13 13:46:58","338"
"A26ZENZ5G8AEGM","caus_thomas_ss_v1","345LHZDEDXTJUDKQ34FKAHCA96M3UU","5","0","2","1","0","11327","2017-09-13 13:47:00","339"
"ANPCXN619ACW9","caus_thomas_ss_v1","3FQ5JJ512LPCVL8OR9VXD81ICWENKW","3","0","0","1","0","18631","2017-09-13 13:47:00","340"
"A2ECKFN36SS0J7","caus_thomas_ss_v1","3FUI0JHJPXZZVJ77OKJJN8MAWT233M","7","1","3","1","1","16229","2017-09-13 13:47:01","341"
"A109FIVN79QNID","caus_thomas_ss_v1","3VAR3R6G1P2AI56ZJZY72SSW76Q8OE","8","3","1","0","1","12912","2017-09-13 13:47:03","342"
"A7TI4X4LRGQA0","caus_thomas_ss_v1","336KAV9KYQTBQ48C95Y4USDVZGX2YG","6","2","2","0","0","16716","2017-09-13 13:47:03","343"
"A610SH5RY1NG1","caus_thomas_ss_v1","3H7Z272LX78NIC2JSOKQWXJS1BKLPT","3","2","2","0","0","6362","2017-09-13 13:47:04","344"
"A125FN8IYVB93O","caus_thomas_ss_v1","3OB0CAO74HQF5UBUSQ1BHWJXOZEYHT","4","0","0","1","0","16755","2017-09-13 13:47:05","345"
"A180J6JI4SB56X","caus_thomas_ss_v1","30H4UDGLT2J7OUK4S0L5WAYH1GAPMZ","6","2","3","0","0","6844","2017-09-13 13:47:06","346"
"A1274B3RL8IZ8H","caus_thomas_ss_v1","3AMW0RGHOD3D6C5441059PNH66KNPX","7","0","1","1","0","69737","2017-09-13 13:47:06","347"
"A1SQBU3MZKB312","caus_thomas_ss_v1","3P59JYT76LLF9I9IZZB5MBLGKEET2H","4","0","0","1","0","30132","2017-09-13 13:47:06","348"
"A2V9JE42W9BXQ5","caus_thomas_ss_v1","3J2UYBXQQLD2BAVSOZZYSD0N38K600","5","0","1","1","0","10787","2017-09-13 13:47:07","349"
"A3L2UB07EZJAMD","caus_thomas_ss_v1","3NPFYT4IZC5C5TQ93OXRDI0N7T7XGN","7","1","0","1","1","88197","2017-09-13 13:47:07","350"
"A16G6PPH1INQL8","caus_thomas_ss_v1","3P1L2B7AD1Q5XCQIDO7B7XE2R6OLOC","7","2","0","0","0","28125","2017-09-13 13:47:09","351"
"A109FIVN79QNID","caus_thomas_ss_v1","3VAR3R6G1P2AI56ZJZY72SSW76Q8OE","1","0","2","1","0","5495","2017-09-13 13:47:09","352"
"A610SH5RY1NG1","caus_thomas_ss_v1","3H7Z272LX78NIC2JSOKQWXJS1BKLPT","2","1","3","1","1","4730","2017-09-13 13:47:09","353"
"A2EABC3X5VMZ95","caus_thomas_ss_v1","34Z02EIMISE8D864KC7R3NS1NGUT0X","6","0","0","1","0","71155","2017-09-13 13:47:10","354"
"A7TI4X4LRGQA0","caus_thomas_ss_v1","336KAV9KYQTBQ48C95Y4USDVZGX2YG","7","3","3","0","1","6202","2017-09-13 13:47:10","355"
"ANPCXN619ACW9","caus_thomas_ss_v1","3FQ5JJ512LPCVL8OR9VXD81ICWENKW","2","3","1","0","1","9220","2017-09-13 13:47:10","356"
"A26ZENZ5G8AEGM","caus_thomas_ss_v1","345LHZDEDXTJUDKQ34FKAHCA96M3UU","6","1","3","1","1","9753","2017-09-13 13:47:10","357"
"ATOP7IB7PX8WX","caus_thomas_ss_v1","3UN61F00HWQUS0FDDT88K3NAG395RI","4","0","3","1","0","12695","2017-09-13 13:47:11","358"
"A2UNSF09FWX9S8","caus_thomas_ss_v1","3NVC2EB65Q00BM4VD5C9D2IN5UX3YS","0","2","0","0","0","27332","2017-09-13 13:47:12","359"
"A125FN8IYVB93O","caus_thomas_ss_v1","3OB0CAO74HQF5UBUSQ1BHWJXOZEYHT","4","2","1","0","0","8295","2017-09-13 13:47:14","360"
"A1274B3RL8IZ8H","caus_thomas_ss_v1","3AMW0RGHOD3D6C5441059PNH66KNPX","6","2","2","0","0","8556","2017-09-13 13:47:16","361"
"A1IFIK8J49WBER","caus_thomas_ss_v1","3VA45EW49NOS75MEKEPSNI5OT0JO19","5","2","3","0","0","27403","2017-09-13 13:47:16","362"
"A3P9OTCAYB6E9V","caus_thomas_ss_v1","3W92K5RLWUIML7WUMDDIL0CD19LV50","5","3","0","0","1","60568","2017-09-13 13:47:16","363"
"A21ZXLGZ9OBHJV","caus_thomas_ss_v1","3OCHAWUVGOLH7FMSTFI6BASGEAOXKQ","7","2","2","0","0","29555","2017-09-13 13:47:16","364"
"ANPCXN619ACW9","caus_thomas_ss_v1","3FQ5JJ512LPCVL8OR9VXD81ICWENKW","2","1","2","1","1","5655","2017-09-13 13:47:17","365"
"A3MG9U0TT7WGYR","caus_thomas_ss_v1","3ZR9AIQJUBAOWNRE5B6JVFG97HE40D","3","1","0","1","1","33748","2017-09-13 13:47:17","366"
"A109FIVN79QNID","caus_thomas_ss_v1","3VAR3R6G1P2AI56ZJZY72SSW76Q8OE","6","1","3","1","1","9143","2017-09-13 13:47:19","367"
"AM03OFEBTZ4EV","caus_thomas_ss_v1","3R2UR8A0IAH0X677R7AZIR9PYFYXOA","8","2","0","0","0","85415","2017-09-13 13:47:21","368"
"A1C8FN01981A69","caus_thomas_ss_v1","337RC3OW0530NWZFE0TP2P8ANZLVLO","4","2","0","0","0","44554","2017-09-13 13:47:22","369"
"A3L2UB07EZJAMD","caus_thomas_ss_v1","3NPFYT4IZC5C5TQ93OXRDI0N7T7XGN","3","0","1","1","0","16569","2017-09-13 13:47:25","370"
"A125FN8IYVB93O","caus_thomas_ss_v1","3OB0CAO74HQF5UBUSQ1BHWJXOZEYHT","4","3","2","0","1","10331","2017-09-13 13:47:25","371"
"A1274B3RL8IZ8H","caus_thomas_ss_v1","3AMW0RGHOD3D6C5441059PNH66KNPX","6","1","3","1","1","8750","2017-09-13 13:47:25","372"
"ANPCXN619ACW9","caus_thomas_ss_v1","3FQ5JJ512LPCVL8OR9VXD81ICWENKW","2","2","3","0","0","7597","2017-09-13 13:47:26","373"
"A125FN8IYVB93O","caus_thomas_ss_v1","3OB0CAO74HQF5UBUSQ1BHWJXOZEYHT","4","1","3","1","1","4181","2017-09-13 13:47:31","374"
"A16G6PPH1INQL8","caus_thomas_ss_v1","3P1L2B7AD1Q5XCQIDO7B7XE2R6OLOC","7","0","1","1","0","21152","2017-09-13 13:47:31","375"
"A2UNSF09FWX9S8","caus_thomas_ss_v1","3NVC2EB65Q00BM4VD5C9D2IN5UX3YS","0","3","1","0","1","17586","2017-09-13 13:47:31","376"
"A3P9OTCAYB6E9V","caus_thomas_ss_v1","3W92K5RLWUIML7WUMDDIL0CD19LV50","6","1","1","1","1","14369","2017-09-13 13:47:31","377"
"A189V9652OVX56","caus_thomas_ss_v1","3HRMW88U16R40DGKBF6FH9X9T8Z0M4","4","3","0","0","1","123651","2017-09-13 13:47:32","378"
"ATAHQP6QL09TX","caus_thomas_ss_v1","3KAKFY4PGU3ELMPQ9NQ6REOZFBZ3IM","0","2","0","0","0","55289","2017-09-13 13:47:33","379"
"A2YW35WSBU88O0","caus_thomas_ss_v1","34Z02EIMISE8D864KC7R3NS1NGV0T5","0","2","0","0","0","33877","2017-09-13 13:47:33","380"
"A3EXIUOGZVV132","caus_thomas_ss_v1","33TIN5LC04BMQOTBUEDJ4FL95M6Y93","4","2","1","0","0","52030","2017-09-13 13:47:33","381"
"A19L8SNH73AX1Z","caus_thomas_ss_v1","3X3OR7WPZZ12CK3267IFABO2C1L8LX","5","3","1","0","1","50920","2017-09-13 13:47:35","382"
"A21ZXLGZ9OBHJV","caus_thomas_ss_v1","3OCHAWUVGOLH7FMSTFI6BASGEAOXKQ","6","0","3","1","0","18839","2017-09-13 13:47:36","383"
"A1SQBU3MZKB312","caus_thomas_ss_v1","3P59JYT76LLF9I9IZZB5MBLGKEET2H","8","2","1","0","0","31935","2017-09-13 13:47:39","384"
"A3P9OTCAYB6E9V","caus_thomas_ss_v1","3W92K5RLWUIML7WUMDDIL0CD19LV50","4","2","2","0","0","9475","2017-09-13 13:47:42","385"
"A1C8FN01981A69","caus_thomas_ss_v1","337RC3OW0530NWZFE0TP2P8ANZLVLO","4","0","1","1","0","19230","2017-09-13 13:47:42","386"
"A3MG9U0TT7WGYR","caus_thomas_ss_v1","3ZR9AIQJUBAOWNRE5B6JVFG97HE40D","1","2","1","0","0","25010","2017-09-13 13:47:43","387"
"A16G6PPH1INQL8","caus_thomas_ss_v1","3P1L2B7AD1Q5XCQIDO7B7XE2R6OLOC","7","3","2","0","1","11428","2017-09-13 13:47:43","388"
"A1GKEEI844CEKI
","caus_thomas_ss_v1","34T446B1C0FRRR4TYQC1EDSXZUV0CM","8","1","0","1","1","19632","2017-09-13 13:47:44","389"
"AJRY9ALX8069Y","caus_thomas_ss_v1","34Q075JO1XE74OUVITNHXH96VX410X","2","0","2","1","0","66743","2017-09-13 13:47:45","390"
"A2UNSF09FWX9S8","caus_thomas_ss_v1","3NVC2EB65Q00BM4VD5C9D2IN5UX3YS","0","0","2","1","0","14135","2017-09-13 13:47:46","391"
"A3L2UB07EZJAMD","caus_thomas_ss_v1","3NPFYT4IZC5C5TQ93OXRDI0N7T7XGN","2","2","2","0","0","21586","2017-09-13 13:47:47","392"
"ATAHQP6QL09TX","caus_thomas_ss_v1","3KAKFY4PGU3ELMPQ9NQ6REOZFBZ3IM","0","3","1","0","1","13813","2017-09-13 13:47:48","393"
"A2EABC3X5VMZ95","caus_thomas_ss_v1","34Z02EIMISE8D864KC7R3NS1NGUT0X","2","2","1","0","0","37027","2017-09-13 13:47:48","394"
"A1GKEEI844CEKI
","caus_thomas_ss_v1","34T446B1C0FRRR4TYQC1EDSXZUV0CM","7","2","1","0","0","3216","2017-09-13 13:47:48","395"
"AHSQOWJG4HA3S","caus_thomas_ss_v1","39LNWE0K4UXYKG29O7M7ENEZSOIIU8","3","0","3","1","0","201653","2017-09-13 13:47:49","396"
"A2YW35WSBU88O0","caus_thomas_ss_v1","34Z02EIMISE8D864KC7R3NS1NGV0T5","0","3","1","0","1","14785","2017-09-13 13:47:49","397"
"A1SQBU3MZKB312","caus_thomas_ss_v1","3P59JYT76LLF9I9IZZB5MBLGKEET2H","8","3","2","0","1","12214","2017-09-13 13:47:52","398"
"A1GKEEI844CEKI
","caus_thomas_ss_v1","34T446B1C0FRRR4TYQC1EDSXZUV0CM","7","3","2","0","1","3666","2017-09-13 13:47:53","399"
"ATAHQP6QL09TX","caus_thomas_ss_v1","3KAKFY4PGU3ELMPQ9NQ6REOZFBZ3IM","0","0","2","1","0","7163","2017-09-13 13:47:56","400"
"A1GKEEI844CEKI
","caus_thomas_ss_v1","34T446B1C0FRRR4TYQC1EDSXZUV0CM","7","0","3","1","0","2361","2017-09-13 13:47:56","401"
"A2UNSF09FWX9S8","caus_thomas_ss_v1","3NVC2EB65Q00BM4VD5C9D2IN5UX3YS","0","1","3","1","1","9129","2017-09-13 13:47:56","402"
"AJRY9ALX8069Y","caus_thomas_ss_v1","34Q075JO1XE74OUVITNHXH96VX410X","2","3","3","0","1","10755","2017-09-13 13:47:57","403"
"A16G6PPH1INQL8","caus_thomas_ss_v1","3P1L2B7AD1Q5XCQIDO7B7XE2R6OLOC","7","1","3","1","1","12601","2017-09-13 13:47:57","404"
"A2YW35WSBU88O0","caus_thomas_ss_v1","34Z02EIMISE8D864KC7R3NS1NGV0T5","0","1","2","1","1","8190","2017-09-13 13:47:58","405"
"A3MG9U0TT7WGYR","caus_thomas_ss_v1","3ZR9AIQJUBAOWNRE5B6JVFG97HE40D","4","0","2","1","0","15414","2017-09-13 13:47:59","406"
"A19L8SNH73AX1Z","caus_thomas_ss_v1","3X3OR7WPZZ12CK3267IFABO2C1L8LX","3","2","2","0","0","23763","2017-09-13 13:47:59","407"
"A39P7J60DY4WLU","caus_thomas_ss_v1","3KRVW3HTZNM41M0WKHPZRF3SO0HSMI","8","3","2","0","1","180180","2017-09-13 13:48:00","408"
"A189V9652OVX56","caus_thomas_ss_v1","3HRMW88U16R40DGKBF6FH9X9T8Z0M4","4","0","1","1","0","26848","2017-09-13 13:48:00","409"
"A3180VXVP8MOIH","caus_thomas_ss_v1","32EYX73OY0ABDF5SEUGGSFFQFK1URO","1","1","0","1","1","32772","2017-09-13 13:48:01","410"
"AM03OFEBTZ4EV","caus_thomas_ss_v1","3R2UR8A0IAH0X677R7AZIR9PYFYXOA","8","3","1","0","1","42288","2017-09-13 13:48:04","411"
"A2EABC3X5VMZ95","caus_thomas_ss_v1","34Z02EIMISE8D864KC7R3NS1NGUT0X","5","1","2","1","1","17097","2017-09-13 13:48:06","412"
"A3L2UB07EZJAMD","caus_thomas_ss_v1","3NPFYT4IZC5C5TQ93OXRDI0N7T7XGN","7","3","3","0","1","20051","2017-09-13 13:48:09","413"
"A1SQBU3MZKB312","caus_thomas_ss_v1","3P59JYT76LLF9I9IZZB5MBLGKEET2H","4","1","3","1","1","16333","2017-09-13 13:48:10","414"
"A39P7J60DY4WLU","caus_thomas_ss_v1","3KRVW3HTZNM41M0WKHPZRF3SO0HSMI","4","2","3","0","0","11717","2017-09-13 13:48:12","415"
"A2YW35WSBU88O0","caus_thomas_ss_v1","34Z02EIMISE8D864KC7R3NS1NGV0T5","0","0","3","1","0","14223","2017-09-13 13:48:13","416"
"A3MG9U0TT7WGYR","caus_thomas_ss_v1","3ZR9AIQJUBAOWNRE5B6JVFG97HE40D","6","3","3","0","1","13344","2017-09-13 13:48:14","417"
"A2LGWOP08DUIBD","caus_thomas_ss_v1","3WOKGM4L71HS0G1WOVLS9DMEO8E0OJ","4","0","1","1","0","76114","2017-09-13 13:48:15","418"
"A3P9OTCAYB6E9V","caus_thomas_ss_v1","3W92K5RLWUIML7WUMDDIL0CD19LV50","5","0","3","1","0","33954","2017-09-13 13:48:17","419"
"A189V9652OVX56","caus_thomas_ss_v1","3HRMW88U16R40DGKBF6FH9X9T8Z0M4","4","1","2","1","1","15631","2017-09-13 13:48:17","420"
"ASV53ZC7ILJ7B","caus_thomas_ss_v1","3SKEMFQBZ36RSELKL76EVBBNN1G8KU","1","3","0","0","1","41525","2017-09-13 13:48:19","421"
"A3180VXVP8MOIH","caus_thomas_ss_v1","32EYX73OY0ABDF5SEUGGSFFQFK1URO","2","3","1","0","1","18127","2017-09-13 13:48:20","422"
"A1BZC0YNP992F5
","caus_thomas_ss_v1","3RJSC4XJ10V6S6VEJGPT07MN7D905E","4","1","0","1","1","15612","2017-09-13 13:48:20","423"
"A3EXIUOGZVV132","caus_thomas_ss_v1","33TIN5LC04BMQOTBUEDJ4FL95M6Y93","6","3","2","0","1","49744","2017-09-13 13:48:24","424"
"A1C8FN01981A69","caus_thomas_ss_v1","337RC3OW0530NWZFE0TP2P8ANZLVLO","4","1","2","1","1","44905","2017-09-13 13:48:28","425"
"A19L8SNH73AX1Z","caus_thomas_ss_v1","3X3OR7WPZZ12CK3267IFABO2C1L8LX","3","1","3","1","1","28311","2017-09-13 13:48:29","426"
"ASV53ZC7ILJ7B","caus_thomas_ss_v1","3SKEMFQBZ36RSELKL76EVBBNN1G8KU","1","1","1","1","1","9706","2017-09-13 13:48:30","427"
"A2EABC3X5VMZ95","caus_thomas_ss_v1","34Z02EIMISE8D864KC7R3NS1NGUT0X","8","3","3","0","1","24045","2017-09-13 13:48:31","428"
"A1BZC0YNP992F5
","caus_thomas_ss_v1","3RJSC4XJ10V6S6VEJGPT07MN7D905E","5","2","1","0","0","9910","2017-09-13 13:48:31","429"
"AM03OFEBTZ4EV","caus_thomas_ss_v1","3R2UR8A0IAH0X677R7AZIR9PYFYXOA","8","1","2","1","1","26570","2017-09-13 13:48:32","430"
"ASV53ZC7ILJ7B","caus_thomas_ss_v1","3SKEMFQBZ36RSELKL76EVBBNN1G8KU","1","2","2","0","0","5523","2017-09-13 13:48:37","431"
"A3180VXVP8MOIH","caus_thomas_ss_v1","32EYX73OY0ABDF5SEUGGSFFQFK1URO","4","0","2","1","0","18642","2017-09-13 13:48:40","432"
"A2LGWOP08DUIBD","caus_thomas_ss_v1","3WOKGM4L71HS0G1WOVLS9DMEO8E0OJ","4","1","2","1","1","23694","2017-09-13 13:48:40","433"
"A1BZC0YNP992F5
","caus_thomas_ss_v1","3RJSC4XJ10V6S6VEJGPT07MN7D905E","2","0","2","1","0","8078","2017-09-13 13:48:40","434"
"A189V9652OVX56","caus_thomas_ss_v1","3HRMW88U16R40DGKBF6FH9X9T8Z0M4","4","2","3","0","0","22799","2017-09-13 13:48:41","435"
"A33AIOJN19NU8J","caus_thomas_ss_v1","3OHYZ19UGC6O1TZEGXILYJYRXUPOAX","6","0","0","1","0","64723","2017-09-13 13:48:48","436"
"ASV53ZC7ILJ7B","caus_thomas_ss_v1","3SKEMFQBZ36RSELKL76EVBBNN1G8KU","1","0","3","1","0","10749","2017-09-13 13:48:48","437"
"A1BZC0YNP992F5
","caus_thomas_ss_v1","3RJSC4XJ10V6S6VEJGPT07MN7D905E","5","3","3","0","1","8245","2017-09-13 13:48:49","438"
"ATAHQP6QL09TX","caus_thomas_ss_v1","3KAKFY4PGU3ELMPQ9NQ6REOZFBZ3IM","0","1","3","1","1","54181","2017-09-13 13:48:51","439"
"A1C8FN01981A69","caus_thomas_ss_v1","337RC3OW0530NWZFE0TP2P8ANZLVLO","4","3","3","0","1","21503","2017-09-13 13:48:51","440"
"A3180VXVP8MOIH","caus_thomas_ss_v1","32EYX73OY0ABDF5SEUGGSFFQFK1URO","1","2","3","0","0","14080","2017-09-13 13:48:55","441"
"A1BQCRF5Q76YFY
","caus_thomas_ss_v1","3X73LLYYQ1FLTV7GLOS00GLQKFANHS","7","3","0","0","1","28785","2017-09-13 13:48:59","442"
"A2V9JE42W9BXQ5","caus_thomas_ss_v1","3J2UYBXQQLD2BAVSOZZYSD0N38K600","6","2","2","0","0","112857","2017-09-13 13:49:01","443"
"A2WHC086WNUQNB","caus_thomas_ss_v1","3EICBYG644XYTX5FKYM7WI7TY30JCB","8","2","0","0","0","89935","2017-09-13 13:49:02","444"
"A2LGWOP08DUIBD","caus_thomas_ss_v1","3WOKGM4L71HS0G1WOVLS9DMEO8E0OJ","4","3","3","0","1","20989","2017-09-13 13:49:02","445"
"A2V9JE42W9BXQ5","caus_thomas_ss_v1","3J2UYBXQQLD2BAVSOZZYSD0N38K600","8","3","3","0","1","5395","2017-09-13 13:49:07","446"
"A2V35L3RIRYYXV","caus_thomas_ss_v1","3VAR3R6G1P2AI56ZJZY72SSW76PO8T","4","0","0","1","0","95310","2017-09-13 13:49:09","447"
"A1BQCRF5Q76YFY
","caus_thomas_ss_v1","3X73LLYYQ1FLTV7GLOS00GLQKFANHS","5","1","1","1","1","8839","2017-09-13 13:49:09","448"
"A1ZZ7YO3YASNIP","caus_thomas_ss_v1","39U1BHVTDLS4U0513ZPA5LQ8QSF3T3","4","3","0","0","1","10449","2017-09-13 13:49:09","449"
"AM03OFEBTZ4EV","caus_thomas_ss_v1","3R2UR8A0IAH0X677R7AZIR9PYFYXOA","8","0","3","1","0","36946","2017-09-13 13:49:10","450"
"A1ZZ7YO3YASNIP","caus_thomas_ss_v1","39U1BHVTDLS4U0513ZPA5LQ8QSF3T3","5","2","1","0","0","5462","2017-09-13 13:49:16","451"
"A3EXIUOGZVV132","caus_thomas_ss_v1","33TIN5LC04BMQOTBUEDJ4FL95M6Y93","6","1","3","1","1","54530","2017-09-13 13:49:19","452"
"A1BQCRF5Q76YFY
","caus_thomas_ss_v1","3X73LLYYQ1FLTV7GLOS00GLQKFANHS","5","2","2","0","0","9477","2017-09-13 13:49:19","453"
"AY7WPVKHVNBLG","caus_thomas_ss_v1","3VP0C6EFSGXZEO2ZD4MWQA706BKM6Q","4","0","0","1","0","126210","2017-09-13 13:49:20","454"
"A2V35L3RIRYYXV","caus_thomas_ss_v1","3VAR3R6G1P2AI56ZJZY72SSW76PO8T","8","3","1","0","1","9966","2017-09-13 13:49:20","455"
"A1ZZ7YO3YASNIP","caus_thomas_ss_v1","39U1BHVTDLS4U0513ZPA5LQ8QSF3T3","4","0","2","1","0","4565","2017-09-13 13:49:21","456"
"ANPTDUX6LOGYY","caus_thomas_ss_v1","3LQ8PUHQFLTTFUWPO8F8V8P9YGGIH7","7","0","0","1","0","27349","2017-09-13 13:49:23","457"
"A2W3A42TRMJ861","caus_thomas_ss_v1","3UWN2HHPUY6AJ4LWWI4Z4USSTQRSNI","5","3","0","0","1","33707","2017-09-13 13:49:24","458"
"A1ZZ7YO3YASNIP","caus_thomas_ss_v1","39U1BHVTDLS4U0513ZPA5LQ8QSF3T3","4","1","3","1","1","4270","2017-09-13 13:49:27","459"
"A1BQCRF5Q76YFY
","caus_thomas_ss_v1","3X73LLYYQ1FLTV7GLOS00GLQKFANHS","5","0","3","1","0","6310","2017-09-13 13:49:27","460"
"A2V35L3RIRYYXV","caus_thomas_ss_v1","3VAR3R6G1P2AI56ZJZY72SSW76PO8T","5","1","2","1","1","7172","2017-09-13 13:49:28","461"
"A2WHC086WNUQNB","caus_thomas_ss_v1","3EICBYG644XYTX5FKYM7WI7TY30JCB","4","0","1","1","0","25927","2017-09-13 13:49:29","462"
"A33AIOJN19NU8J","caus_thomas_ss_v1","3OHYZ19UGC6O1TZEGXILYJYRXUPOAX","5","3","1","0","1","43520","2017-09-13 13:49:32","463"
"ANPTDUX6LOGYY","caus_thomas_ss_v1","3LQ8PUHQFLTTFUWPO8F8V8P9YGGIH7","1","2","1","0","0","8548","2017-09-13 13:49:33","464"
"A2V35L3RIRYYXV","caus_thomas_ss_v1","3VAR3R6G1P2AI56ZJZY72SSW76PO8T","4","2","3","0","0","8012","2017-09-13 13:49:37","465"
"ANPTDUX6LOGYY","caus_thomas_ss_v1","3LQ8PUHQFLTTFUWPO8F8V8P9YGGIH7","7","1","2","1","1","4238","2017-09-13 13:49:38","466"
"AY7WPVKHVNBLG","caus_thomas_ss_v1","3VP0C6EFSGXZEO2ZD4MWQA706BKM6Q","8","3","1","0","1","20745","2017-09-13 13:49:42","467"
"ANPTDUX6LOGYY","caus_thomas_ss_v1","3LQ8PUHQFLTTFUWPO8F8V8P9YGGIH7","7","3","3","0","1","3641","2017-09-13 13:49:42","468"
"A2W3A42TRMJ861","caus_thomas_ss_v1","3UWN2HHPUY6AJ4LWWI4Z4USSTQRSNI","5","2","1","0","0","18151","2017-09-13 13:49:43","469"
"A2WHC086WNUQNB","caus_thomas_ss_v1","3EICBYG644XYTX5FKYM7WI7TY30JCB","4","1","2","1","1","18029","2017-09-13 13:49:48","470"
"A3UVW94KB9UBAJ","caus_thomas_ss_v1","30MVJZJNHMEWVZYC8ECGUS6LSIXJ9U","5","3","0","0","1","5020","2017-09-13 13:49:53","471"
"A3UVW94KB9UBAJ","caus_thomas_ss_v1","30MVJZJNHMEWVZYC8ECGUS6LSIXJ9U","5","1","1","1","1","1977","2017-09-13 13:49:55","472"
"AY7WPVKHVNBLG","caus_thomas_ss_v1","3VP0C6EFSGXZEO2ZD4MWQA706BKM6Q","4","2","2","0","0","14980","2017-09-13 13:49:57","473"
"A3UVW94KB9UBAJ","caus_thomas_ss_v1","30MVJZJNHMEWVZYC8ECGUS6LSIXJ9U","5","2","2","0","0","2603","2017-09-13 13:49:59","474"
"A2W3A42TRMJ861","caus_thomas_ss_v1","3UWN2HHPUY6AJ4LWWI4Z4USSTQRSNI","4","1","2","1","1","15206","2017-09-13 13:49:59","475"
"A3K7UC7LUKV0ZV","caus_thomas_ss_v1","3QAVNHZ3EM5GV8WH352T62UX2PKLAD","5","1","0","1","1","61008","2017-09-13 13:50:00","476"
"A2WHC086WNUQNB","caus_thomas_ss_v1","3EICBYG644XYTX5FKYM7WI7TY30JCB","8","3","3","0","1","11671","2017-09-13 13:50:00","477"
"A3UVW94KB9UBAJ","caus_thomas_ss_v1","30MVJZJNHMEWVZYC8ECGUS6LSIXJ9U","5","0","3","1","0","1817","2017-09-13 13:50:02","478"
"A3K7UC7LUKV0ZV","caus_thomas_ss_v1","3QAVNHZ3EM5GV8WH352T62UX2PKLAD","5","2","1","0","0","7292","2017-09-13 13:50:08","479"
"A2W3A42TRMJ861","caus_thomas_ss_v1","3UWN2HHPUY6AJ4LWWI4Z4USSTQRSNI","4","0","3","1","0","8057","2017-09-13 13:50:08","480"
"A33AIOJN19NU8J","caus_thomas_ss_v1","3OHYZ19UGC6O1TZEGXILYJYRXUPOAX","7","2","2","0","0","39714","2017-09-13 13:50:13","481"
"A2T1K94BLNDBAH","caus_thomas_ss_v1","3LKC68YZ3A4L862HH2EDG8VIPDSOW8","4","3","0","0","1","34958","2017-09-13 13:50:16","482"
"A24G5XZLX3RDE2","caus_thomas_ss_v1","34J10VATJFZ6SNVS7Y224MHAP3CIQ3","5","0","0","1","0","23920","2017-09-13 13:50:17","483"
"A3K7UC7LUKV0ZV","caus_thomas_ss_v1","3QAVNHZ3EM5GV8WH352T62UX2PKLAD","5","0","2","1","0","8349","2017-09-13 13:50:18","484"
"A1GCTKOPKUTW3G","caus_thomas_ss_v1","3BDCF01OGXVHRQUKJBG99OC45GNLYN","7","3","0","0","1","24181","2017-09-13 13:50:21","485"
"A2XMO68T3BJFFA
","caus_thomas_ss_v1","3IAS3U3I0FHFDWF1ZDKKMHFUE7EB29","3","0","2","1","0","242821","2017-09-13 13:50:22","486"
"A3K7UC7LUKV0ZV","caus_thomas_ss_v1","3QAVNHZ3EM5GV8WH352T62UX2PKLAD","5","3","3","0","1","3963","2017-09-13 13:50:23","487"
"A2XMO68T3BJFFA
","caus_thomas_ss_v1","3IAS3U3I0FHFDWF1ZDKKMHFUE7EB29","8","3","3","0","1","4241","2017-09-13 13:50:27","488"
"AY7WPVKHVNBLG","caus_thomas_ss_v1","3VP0C6EFSGXZEO2ZD4MWQA706BKM6Q","5","1","3","1","1","29252","2017-09-13 13:50:28","489"
"A1M9H7WED4RUD5","caus_thomas_ss_v1","3J88R45B2GZII6J867NE7REF8KUPXJ","5","0","0","1","0","66465","2017-09-13 13:50:31","490"
"A1GCTKOPKUTW3G","caus_thomas_ss_v1","3BDCF01OGXVHRQUKJBG99OC45GNLYN","3","2","1","0","0","12773","2017-09-13 13:50:35","491"
"A24G5XZLX3RDE2","caus_thomas_ss_v1","34J10VATJFZ6SNVS7Y224MHAP3CIQ3","4","1","1","1","1","18407","2017-09-13 13:50:36","492"
"A19C6T7B0H4PAQ","caus_thomas_ss_v1","33IZTU6J812FVYZ0YOR82WJQV41SX2","1","1","0","1","1","18424","2017-09-13 13:50:42","493"
"A2Y2OW2CR3WMRK
","caus_thomas_ss_v1","3TY7ZAOG5FL9APGHQ3TZ2W554340KZ","2","0","0","1","0","30901","2017-09-13 13:50:43","494"
"A24G5XZLX3RDE2","caus_thomas_ss_v1","34J10VATJFZ6SNVS7Y224MHAP3CIQ3","3","3","2","0","1","7217","2017-09-13 13:50:44","495"
"A1GCTKOPKUTW3G","caus_thomas_ss_v1","3BDCF01OGXVHRQUKJBG99OC45GNLYN","6","1","2","1","1","11006","2017-09-13 13:50:47","496"
"A33AIOJN19NU8J","caus_thomas_ss_v1","3OHYZ19UGC6O1TZEGXILYJYRXUPOAX","7","1","3","1","1","34859","2017-09-13 13:50:49","497"
"A1QGG767E07WBA","caus_thomas_ss_v1","3I02618YA07Q12PD12CRNKFBE2DUPW","8","0","0","1","0","60835","2017-09-13 13:50:50","498"
"A24G5XZLX3RDE2","caus_thomas_ss_v1","34J10VATJFZ6SNVS7Y224MHAP3CIQ3","3","2","3","0","0","6330","2017-09-13 13:50:51","499"
"A2T1K94BLNDBAH","caus_thomas_ss_v1","3LKC68YZ3A4L862HH2EDG8VIPDSOW8","4","2","1","0","0","35637","2017-09-13 13:50:53","500"
"A1M9H7WED4RUD5","caus_thomas_ss_v1","3J88R45B2GZII6J867NE7REF8KUPXJ","2","2","1","0","0","20706","2017-09-13 13:50:53","501"
"A29KUIEVPK8WB4","caus_thomas_ss_v1","3KXIR214I4HVSXUSKYAXE39O4FY42X","2","2","0","0","0","32460","2017-09-13 13:50:57","502"
"A19C6T7B0H4PAQ","caus_thomas_ss_v1","33IZTU6J812FVYZ0YOR82WJQV41SX2","0","0","1","1","0","14517","2017-09-13 13:50:58","503"
"A1GCTKOPKUTW3G","caus_thomas_ss_v1","3BDCF01OGXVHRQUKJBG99OC45GNLYN","4","0","3","1","0","10230","2017-09-13 13:50:58","504"
"A2Y2OW2CR3WMRK
","caus_thomas_ss_v1","3TY7ZAOG5FL9APGHQ3TZ2W554340KZ","1","1","1","1","1","16523","2017-09-13 13:51:00","505"
"A1M9H7WED4RUD5","caus_thomas_ss_v1","3J88R45B2GZII6J867NE7REF8KUPXJ","0","1","2","1","1","6678","2017-09-13 13:51:01","506"
"A1VJ18RHIN82NA","caus_thomas_ss_v1","3WT783CTPBISBE73W69QYUOGQYSBCJ","3","0","0","1","0","35106","2017-09-13 13:51:03","507"
"A1M9H7WED4RUD5","caus_thomas_ss_v1","3J88R45B2GZII6J867NE7REF8KUPXJ","-1","3","3","0","1","2081","2017-09-13 13:51:04","508"
"A19C6T7B0H4PAQ","caus_thomas_ss_v1","33IZTU6J812FVYZ0YOR82WJQV41SX2","0","2","2","0","0","5852","2017-09-13 13:51:05","509"
"A1Y0Y6U906ABT5","caus_thomas_ss_v1","3V0Z7YWSIY1UMAD74UBKNT91HZUV2Z","4","1","0","1","1","39312","2017-09-13 13:51:05","510"
"A19C6T7B0H4PAQ","caus_thomas_ss_v1","33IZTU6J812FVYZ0YOR82WJQV41SX2","0","3","3","0","1","4423","2017-09-13 13:51:10","511"
"A29KUIEVPK8WB4","caus_thomas_ss_v1","3KXIR214I4HVSXUSKYAXE39O4FY42X","2","0","1","1","0","17298","2017-09-13 13:51:16","512"
"A1QGG767E07WBA","caus_thomas_ss_v1","3I02618YA07Q12PD12CRNKFBE2DUPW","8","3","1","0","1","25908","2017-09-13 13:51:17","513"
"A3LRZX8477TYYZ","caus_thomas_ss_v1","3BF51CHDTVBI8ZF9KIQ2P4PDCM00HV","8","1","3","1","1","288565","2017-09-13 13:51:19","514"
"A1VJ18RHIN82NA","caus_thomas_ss_v1","3WT783CTPBISBE73W69QYUOGQYSBCJ","6","1","1","1","1","15050","2017-09-13 13:51:20","515"
"A2Y2OW2CR3WMRK
","caus_thomas_ss_v1","3TY7ZAOG5FL9APGHQ3TZ2W554340KZ","5","3","2","0","1","18627","2017-09-13 13:51:20","516"
"A2T1K94BLNDBAH","caus_thomas_ss_v1","3LKC68YZ3A4L862HH2EDG8VIPDSOW8","4","0","2","1","0","29763","2017-09-13 13:51:24","517"
"AM0QVBV8L6QCJ","caus_thomas_ss_v1","39ASUFLU6X8ELFUIXT73DFFBUDSXE6","8","1","0","1","1","35261","2017-09-13 13:51:25","518"
"A1Y0Y6U906ABT5","caus_thomas_ss_v1","3V0Z7YWSIY1UMAD74UBKNT91HZUV2Z","4","0","1","1","0","22444","2017-09-13 13:51:28","519"
"A1VJ18RHIN82NA","caus_thomas_ss_v1","3WT783CTPBISBE73W69QYUOGQYSBCJ","8","3","2","0","1","8072","2017-09-13 13:51:29","520"
"A2Y2OW2CR3WMRK
","caus_thomas_ss_v1","3TY7ZAOG5FL9APGHQ3TZ2W554340KZ","3","2","3","0","0","7846","2017-09-13 13:51:29","521"
"A29KUIEVPK8WB4","caus_thomas_ss_v1","3KXIR214I4HVSXUSKYAXE39O4FY42X","5","3","2","0","1","14859","2017-09-13 13:51:31","522"
"A1VJ18RHIN82NA","caus_thomas_ss_v1","3WT783CTPBISBE73W69QYUOGQYSBCJ","4","2","3","0","0","5586","2017-09-13 13:51:35","523"
"A3C34FI8E7P48K","caus_thomas_ss_v1","32XVDSJFPZYBWNJYQ2AT0XQOQ6IM29","0","0","0","1","0","31892","2017-09-13 13:51:36","524"
"A2T1K94BLNDBAH","caus_thomas_ss_v1","3LKC68YZ3A4L862HH2EDG8VIPDSOW8","4","1","3","1","1","13724","2017-09-13 13:51:38","525"
"A13VIJ7G997ZCY","caus_thomas_ss_v1","3FDJT1UU74985W2IN9ZBJR1WLBE5KO","7","3","0","0","1","23574","2017-09-13 13:51:41","526"
"A1QGG767E07WBA","caus_thomas_ss_v1","3I02618YA07Q12PD12CRNKFBE2DUPW","8","1","2","1","1","22448","2017-09-13 13:51:41","527"
"A29KUIEVPK8WB4","caus_thomas_ss_v1","3KXIR214I4HVSXUSKYAXE39O4FY42X","5","1","3","1","1","8729","2017-09-13 13:51:41","528"
"AM0QVBV8L6QCJ","caus_thomas_ss_v1","39ASUFLU6X8ELFUIXT73DFFBUDSXE6","8","0","1","1","0","18014","2017-09-13 13:51:44","529"
"A2L24GZ7YWKGDE","caus_thomas_ss_v1","33M4IA01QG23UJZNJZR3CMEU92IXRJ","6","0","0","1","0","11479","2017-09-13 13:51:45","530"
"A2L24GZ7YWKGDE","caus_thomas_ss_v1","33M4IA01QG23UJZNJZR3CMEU92IXRJ","7","1","1","1","1","3215","2017-09-13 13:51:49","531"
"A3C34FI8E7P48K","caus_thomas_ss_v1","32XVDSJFPZYBWNJYQ2AT0XQOQ6IM29","0","1","1","1","1","14504","2017-09-13 13:51:51","532"
"A1Y0Y6U906ABT5","caus_thomas_ss_v1","3V0Z7YWSIY1UMAD74UBKNT91HZUV2Z","3","3","2","0","1","21462","2017-09-13 13:51:51","533"
"A2L24GZ7YWKGDE","caus_thomas_ss_v1","33M4IA01QG23UJZNJZR3CMEU92IXRJ","4","2","2","0","0","2636","2017-09-13 13:51:53","534"
"A13VIJ7G997ZCY","caus_thomas_ss_v1","3FDJT1UU74985W2IN9ZBJR1WLBE5KO","4","0","1","1","0","11375","2017-09-13 13:51:53","535"
"AM0QVBV8L6QCJ","caus_thomas_ss_v1","39ASUFLU6X8ELFUIXT73DFFBUDSXE6","8","3","2","0","1","9604","2017-09-13 13:51:55","536"
"A2DPKKEEW2I6QK","caus_thomas_ss_v1","3E337GFOL997TZC51IAIFG9P5FXNGT","3","0","0","1","0","4345","2017-09-13 13:51:56","537"
"A2L24GZ7YWKGDE","caus_thomas_ss_v1","33M4IA01QG23UJZNJZR3CMEU92IXRJ","4","3","3","0","1","4055","2017-09-13 13:51:58","538"
"A2DPKKEEW2I6QK","caus_thomas_ss_v1","3E337GFOL997TZC51IAIFG9P5FXNGT","4","3","1","0","1","2524","2017-09-13 13:52:00","539"
"A2DPKKEEW2I6QK","caus_thomas_ss_v1","3E337GFOL997TZC51IAIFG9P5FXNGT","5","2","2","0","0","2298","2017-09-13 13:52:03","540"
"A1Y0Y6U906ABT5","caus_thomas_ss_v1","3V0Z7YWSIY1UMAD74UBKNT91HZUV2Z","4","2","3","0","0","11495","2017-09-13 13:52:03","541"
"A1QGG767E07WBA","caus_thomas_ss_v1","3I02618YA07Q12PD12CRNKFBE2DUPW","8","2","3","0","0","23232","2017-09-13 13:52:05","542"
"A3C34FI8E7P48K","caus_thomas_ss_v1","32XVDSJFPZYBWNJYQ2AT0XQOQ6IM29","0","2","2","0","0","13793","2017-09-13 13:52:06","543"
"A13VIJ7G997ZCY","caus_thomas_ss_v1","3FDJT1UU74985W2IN9ZBJR1WLBE5KO","2","2","2","0","0","13700","2017-09-13 13:52:08","544"
"A2DPKKEEW2I6QK","caus_thomas_ss_v1","3E337GFOL997TZC51IAIFG9P5FXNGT","5","1","3","1","1","5186","2017-09-13 13:52:09","545"
"A3CWEIEY3TGJFX","caus_thomas_ss_v1","3ZY8KE4ISJ4BETFS651LJB74X58VQD","3","0","0","1","0","32772","2017-09-13 13:52:14","546"
"A13VIJ7G997ZCY","caus_thomas_ss_v1","3FDJT1UU74985W2IN9ZBJR1WLBE5KO","6","1","3","1","1","6109","2017-09-13 13:52:15","547"
"AM0QVBV8L6QCJ","caus_thomas_ss_v1","39ASUFLU6X8ELFUIXT73DFFBUDSXE6","0","2","3","0","0","19022","2017-09-13 13:52:15","548"
"A3C34FI8E7P48K","caus_thomas_ss_v1","32XVDSJFPZYBWNJYQ2AT0XQOQ6IM29","0","3","3","0","1","9874","2017-09-13 13:52:17","549"
"ANV8C2DATCAPB","caus_thomas_ss_v1","3R2PKQ87NW9F78X0F5VLNDX5F2FIMG","-1","2","0","0","0","40725","2017-09-13 13:52:24","550"
"AGDJB8B8CDZ71","caus_thomas_ss_v1","31N2WW6R9RRUBVN08FKLOHB7ZJ73FV","4","1","0","1","1","57069","2017-09-13 13:52:30","551"
"A1CBPOKPO6MJDZ","caus_thomas_ss_v1","3RSDURM96AN3LKKS2PT5WTMKWJMYED","4","1","0","1","1","284185","2017-09-13 13:52:44","552"
"A1BHR5XQ16T7LA","caus_thomas_ss_v1","3EA3QWIZ4IWJK3NKO2WX9RSX9ABITH","0","2","0","0","0","68007","2017-09-13 13:52:47","553"
"A3O81LHBBI8NPK
","caus_thomas_ss_v1","3LO69W1SU3EH5Z9KP5U32O500KXLGP","4","2","0","0","0","12984","2017-09-13 13:52:47","554"
"A1CBPOKPO6MJDZ","caus_thomas_ss_v1","3RSDURM96AN3LKKS2PT5WTMKWJMYED","4","2","1","0","0","4420","2017-09-13 13:52:50","555"
"A3O81LHBBI8NPK
","caus_thomas_ss_v1","3LO69W1SU3EH5Z9KP5U32O500KXLGP","4","0","1","1","0","3727","2017-09-13 13:52:52","556"
"A1CBPOKPO6MJDZ","caus_thomas_ss_v1","3RSDURM96AN3LKKS2PT5WTMKWJMYED","4","3","2","0","1","1622","2017-09-13 13:52:52","557"
"A3CWEIEY3TGJFX","caus_thomas_ss_v1","3ZY8KE4ISJ4BETFS651LJB74X58VQD","5","2","1","0","0","38778","2017-09-13 13:52:54","558"
"A1CBPOKPO6MJDZ","caus_thomas_ss_v1","3RSDURM96AN3LKKS2PT5WTMKWJMYED","4","0","3","1","0","1351","2017-09-13 13:52:55","559"
"A3O81LHBBI8NPK
","caus_thomas_ss_v1","3LO69W1SU3EH5Z9KP5U32O500KXLGP","4","3","2","0","1","5495","2017-09-13 13:52:59","560"
"A3O81LHBBI8NPK
","caus_thomas_ss_v1","3LO69W1SU3EH5Z9KP5U32O500KXLGP","4","1","3","1","1","6014","2017-09-13 13:53:06","561"
"A3CWEIEY3TGJFX","caus_thomas_ss_v1","3ZY8KE4ISJ4BETFS651LJB74X58VQD","7","3","2","0","1","10826","2017-09-13 13:53:06","562"
"A305KD2HBUUCMQ","caus_thomas_ss_v1","34FNN24DCMA3P1RZRO02SZG7JQO5YK","5","2","0","0","0","2785","2017-09-13 13:53:06","563"
"ANV8C2DATCAPB","caus_thomas_ss_v1","3R2PKQ87NW9F78X0F5VLNDX5F2FIMG","8","1","0","1","1","23711","2017-09-13 13:53:07","564"
"ARLGZWN6W91WD","caus_thomas_ss_v1","3EF8EXOTT1WE6UVH41XNFMO2U69J1L","4","1","0","1","1","47875","2017-09-13 13:53:10","565"
"A305KD2HBUUCMQ","caus_thomas_ss_v1","34FNN24DCMA3P1RZRO02SZG7JQO5YK","5","3","1","0","1","2531","2017-09-13 13:53:10","566"
"A305KD2HBUUCMQ","caus_thomas_ss_v1","34FNN24DCMA3P1RZRO02SZG7JQO5YK","6","0","2","1","0","3209","2017-09-13 13:53:14","567"
"ANV8C2DATCAPB","caus_thomas_ss_v1","3R2PKQ87NW9F78X0F5VLNDX5F2FIMG","8","3","1","0","1","7714","2017-09-13 13:53:16","568"
"A305KD2HBUUCMQ","caus_thomas_ss_v1","34FNN24DCMA3P1RZRO02SZG7JQO5YK","6","1","3","1","1","2340","2017-09-13 13:53:18","569"
"ARLGZWN6W91WD","caus_thomas_ss_v1","3EF8EXOTT1WE6UVH41XNFMO2U69J1L","4","2","1","0","0","6860","2017-09-13 13:53:18","570"
"A3CWEIEY3TGJFX","caus_thomas_ss_v1","3ZY8KE4ISJ4BETFS651LJB74X58VQD","5","1","3","1","1","12123","2017-09-13 13:53:19","571"
"ARLGZWN6W91WD","caus_thomas_ss_v1","3EF8EXOTT1WE6UVH41XNFMO2U69J1L","4","3","2","0","1","3107","2017-09-13 13:53:22","572"
"ARLGZWN6W91WD","caus_thomas_ss_v1","3EF8EXOTT1WE6UVH41XNFMO2U69J1L","4","0","3","1","0","1742","2017-09-13 13:53:25","573"
"A1BHR5XQ16T7LA","caus_thomas_ss_v1","3EA3QWIZ4IWJK3NKO2WX9RSX9ABITH","0","3","1","0","1","39390","2017-09-13 13:53:27","574"
"ANV8C2DATCAPB","caus_thomas_ss_v1","3R2PKQ87NW9F78X0F5VLNDX5F2FIMG","8","0","2","1","0","16805","2017-09-13 13:53:34","575"
"ANV8C2DATCAPB","caus_thomas_ss_v1","3R2PKQ87NW9F78X0F5VLNDX5F2FIMG","8","2","3","0","0","16460","2017-09-13 13:53:51","576"
"A1BHR5XQ16T7LA","caus_thomas_ss_v1","3EA3QWIZ4IWJK3NKO2WX9RSX9ABITH","0","1","2","1","1","28798","2017-09-13 13:53:57","577"
"ADXHWQLUQBK77","caus_thomas_ss_v1","3ERMJ6L4DYTIIOG4WEROWO7W1M4M7P","6","3","0","0","1","81839","2017-09-13 13:54:17","578"
"A1BHR5XQ16T7LA","caus_thomas_ss_v1","3EA3QWIZ4IWJK3NKO2WX9RSX9ABITH","0","0","3","1","0","22965","2017-09-13 13:54:21","579"
"AROOCBM042SJD","caus_thomas_ss_v1","3KOPY89HM83AGX9WR5B63F3ZSQNJ3D","8","3","0","0","1","424288","2017-09-13 13:54:25","580"
"ADXHWQLUQBK77","caus_thomas_ss_v1","3ERMJ6L4DYTIIOG4WEROWO7W1M4M7P","3","0","1","1","0","36882","2017-09-13 13:54:55","581"
"ADXHWQLUQBK77","caus_thomas_ss_v1","3ERMJ6L4DYTIIOG4WEROWO7W1M4M7P","4","1","2","1","1","14534","2017-09-13 13:55:11","582"
"ADXHWQLUQBK77","caus_thomas_ss_v1","3ERMJ6L4DYTIIOG4WEROWO7W1M4M7P","5","2","3","0","0","15810","2017-09-13 13:55:28","583"
"A1SHLCA57M79E6","caus_thomas_ss_v1","3WYP994K17SZ85RDW7A7K5U7FLYY6S","6","1","0","1","1","49258","2017-09-13 13:55:41","584"
"A2E8RJ6KKBGEE","caus_thomas_ss_v1","31JLPPHS2UVOH80T7I3BBBKLRKXO31","5","1","0","1","1","274900","2017-09-13 13:55:48","585"
"AGDJB8B8CDZ71","caus_thomas_ss_v1","31N2WW6R9RRUBVN08FKLOHB7ZJ73FV","4","3","1","0","1","200566","2017-09-13 13:55:51","586"
"A2E8RJ6KKBGEE","caus_thomas_ss_v1","31JLPPHS2UVOH80T7I3BBBKLRKXO31","7","0","1","1","0","4816","2017-09-13 13:55:54","587"
"A2E8RJ6KKBGEE","caus_thomas_ss_v1","31JLPPHS2UVOH80T7I3BBBKLRKXO31","4","2","2","0","0","2331","2017-09-13 13:55:57","588"
"AROOCBM042SJD","caus_thomas_ss_v1","3KOPY89HM83AGX9WR5B63F3ZSQNJ3D","8","2","1","0","0","91114","2017-09-13 13:55:57","589"
"A2E8RJ6KKBGEE","caus_thomas_ss_v1","31JLPPHS2UVOH80T7I3BBBKLRKXO31","7","3","3","0","1","4708","2017-09-13 13:56:03","590"
"A3IJTM1XM7FE15","caus_thomas_ss_v1","3V5Q80FXIXSAA1BOKK5E4YHIQF232B","5","0","0","1","0","31904","2017-09-13 13:56:04","591"
"AROOCBM042SJD","caus_thomas_ss_v1","3KOPY89HM83AGX9WR5B63F3ZSQNJ3D","0","1","2","1","1","7103","2017-09-13 13:56:05","592"
"A2APPZDU0VS9LN","caus_thomas_ss_v1","3IJXV6UZ1XK64OASKDR29CRFLPEIR4","5","1","0","1","1","4038","2017-09-13 13:56:09","593"
"A1SHLCA57M79E6","caus_thomas_ss_v1","3WYP994K17SZ85RDW7A7K5U7FLYY6S","1","2","1","0","0","27676","2017-09-13 13:56:10","594"
"AROOCBM042SJD","caus_thomas_ss_v1","3KOPY89HM83AGX9WR5B63F3ZSQNJ3D","8","0","3","1","0","4306","2017-09-13 13:56:11","595"
"A2APPZDU0VS9LN","caus_thomas_ss_v1","3IJXV6UZ1XK64OASKDR29CRFLPEIR4","6","3","1","0","1","3612","2017-09-13 13:56:13","596"
"AGDJB8B8CDZ71","caus_thomas_ss_v1","31N2WW6R9RRUBVN08FKLOHB7ZJ73FV","4","0","2","1","0","21134","2017-09-13 13:56:13","597"
"A3IJTM1XM7FE15","caus_thomas_ss_v1","3V5Q80FXIXSAA1BOKK5E4YHIQF232B","5","2","1","0","0","9785","2017-09-13 13:56:15","598"
"A2APPZDU0VS9LN","caus_thomas_ss_v1","3IJXV6UZ1XK64OASKDR29CRFLPEIR4","4","2","2","0","0","2915","2017-09-13 13:56:17","599"
"A2APPZDU0VS9LN","caus_thomas_ss_v1","3IJXV6UZ1XK64OASKDR29CRFLPEIR4","6","0","3","1","0","3538","2017-09-13 13:56:22","600"
"A3IJTM1XM7FE15","caus_thomas_ss_v1","3V5Q80FXIXSAA1BOKK5E4YHIQF232B","5","1","2","1","1","7844","2017-09-13 13:56:24","601"
"A1P74XUJ8AKQGO","caus_thomas_ss_v1","384PI804XS27Y8TPVC21TIWFLXH0SG","8","2","0","0","0","27569","2017-09-13 13:56:25","602"
"A1P74XUJ8AKQGO","caus_thomas_ss_v1","384PI804XS27Y8TPVC21TIWFLXH0SG","8","1","1","1","1","10552","2017-09-13 13:56:36","603"
"A3IJTM1XM7FE15","caus_thomas_ss_v1","3V5Q80FXIXSAA1BOKK5E4YHIQF232B","5","3","3","0","1","12265","2017-09-13 13:56:37","604"
"A1SHLCA57M79E6","caus_thomas_ss_v1","3WYP994K17SZ85RDW7A7K5U7FLYY6S","4","0","2","1","0","31518","2017-09-13 13:56:42","605"
"A1P74XUJ8AKQGO","caus_thomas_ss_v1","384PI804XS27Y8TPVC21TIWFLXH0SG","8","3","2","0","1","6782","2017-09-13 13:56:44","606"
"A1P74XUJ8AKQGO","caus_thomas_ss_v1","384PI804XS27Y8TPVC21TIWFLXH0SG","5","0","3","1","0","5987","2017-09-13 13:56:51","607"
"AGDJB8B8CDZ71","caus_thomas_ss_v1","31N2WW6R9RRUBVN08FKLOHB7ZJ73FV","4","2","3","0","0","43134","2017-09-13 13:56:57","608"
"A1SHLCA57M79E6","caus_thomas_ss_v1","3WYP994K17SZ85RDW7A7K5U7FLYY6S","7","3","3","0","1","14256","2017-09-13 13:56:58","609"
"A2OVX9UW5WANQE","caus_thomas_ss_v1","337RC3OW0530NWZFE0TP2P8ANZLLVE","4","0","0","1","0","23483","2017-09-13 13:57:07","610"
"A3M26P1CBNLA4U","caus_thomas_ss_v1","39L1G8WVWQS3LGTS1G50ZF7DY9O31U","1","0","0","1","0","409193","2017-09-13 13:57:08","611"
"A2OVX9UW5WANQE","caus_thomas_ss_v1","337RC3OW0530NWZFE0TP2P8ANZLLVE","3","3","1","0","1","7903","2017-09-13 13:57:16","612"
"A2OVX9UW5WANQE","caus_thomas_ss_v1","337RC3OW0530NWZFE0TP2P8ANZLLVE","5","1","2","1","1","7139","2017-09-13 13:57:24","613"
"A2OVX9UW5WANQE","caus_thomas_ss_v1","337RC3OW0530NWZFE0TP2P8ANZLLVE","3","2","3","0","0","10562","2017-09-13 13:57:36","614"
"A2E2UARVOVDR9Y","caus_thomas_ss_v1","3AUQQEL7U5UNQ0ATP77645GMK1B0VL","8","3","0","0","1","41320","2017-09-13 13:57:49","615"
"A2E2UARVOVDR9Y","caus_thomas_ss_v1","3AUQQEL7U5UNQ0ATP77645GMK1B0VL","4","1","2","1","1","10384","2017-09-13 13:58:17","616"
"A2E2UARVOVDR9Y","caus_thomas_ss_v1","3AUQQEL7U5UNQ0ATP77645GMK1B0VL","8","0","1","1","0","16145","2017-09-13 13:58:20","617"
"A2E2UARVOVDR9Y","caus_thomas_ss_v1","3AUQQEL7U5UNQ0ATP77645GMK1B0VL","0","2","3","0","0","9674","2017-09-13 13:58:28","618"
"A1J8TVICSRC70W","caus_thomas_ss_v1","39L1G8WVWQS3LGTS1G50ZF7DY9O13S","6","1","0","1","1","16030","2017-09-13 13:58:33","619"
"A3M26P1CBNLA4U","caus_thomas_ss_v1","39L1G8WVWQS3LGTS1G50ZF7DY9O31U","2","3","1","0","1","85838","2017-09-13 13:58:35","620"
"A1J8TVICSRC70W","caus_thomas_ss_v1","39L1G8WVWQS3LGTS1G50ZF7DY9O13S","5","0","1","1","0","5030","2017-09-13 13:58:40","621"
"A1J8TVICSRC70W","caus_thomas_ss_v1","39L1G8WVWQS3LGTS1G50ZF7DY9O13S","0","3","2","0","1","5617","2017-09-13 13:58:46","622"
"A1J8TVICSRC70W","caus_thomas_ss_v1","39L1G8WVWQS3LGTS1G50ZF7DY9O13S","7","2","3","0","0","4137","2017-09-13 13:58:51","623"
"A3M26P1CBNLA4U","caus_thomas_ss_v1","39L1G8WVWQS3LGTS1G50ZF7DY9O31U","1","2","2","0","0","45182","2017-09-13 13:59:21","624"
"A1EUBMQ86K32XE","caus_thomas_ss_v1","31HQ4X3T3SBKV4IBK5OKR2O3OVRLS9","4","2","0","0","0","54242","2017-09-13 13:59:31","625"
"A314XJY8V1YL12","caus_thomas_ss_v1","3SBEHTYCWN4F1PMEY8JWH8KCOCTIY6","0","2","0","0","0","26742","2017-09-13 13:59:46","626"
"A1EUBMQ86K32XE","caus_thomas_ss_v1","31HQ4X3T3SBKV4IBK5OKR2O3OVRLS9","4","3","1","0","1","16741","2017-09-13 13:59:49","627"
"A1EUBMQ86K32XE","caus_thomas_ss_v1","31HQ4X3T3SBKV4IBK5OKR2O3OVRLS9","5","0","2","1","0","8280","2017-09-13 13:59:58","628"
"A314XJY8V1YL12","caus_thomas_ss_v1","3SBEHTYCWN4F1PMEY8JWH8KCOCTIY6","0","0","1","1","0","16145","2017-09-13 14:00:03","629"
"A314XJY8V1YL12","caus_thomas_ss_v1","3SBEHTYCWN4F1PMEY8JWH8KCOCTIY6","0","3","2","0","1","11111","2017-09-13 14:00:15","630"
"A1EUBMQ86K32XE","caus_thomas_ss_v1","31HQ4X3T3SBKV4IBK5OKR2O3OVRLS9","5","1","3","1","1","15947","2017-09-13 14:00:15","631"
"A314XJY8V1YL12","caus_thomas_ss_v1","3SBEHTYCWN4F1PMEY8JWH8KCOCTIY6","0","1","3","1","1","10151","2017-09-13 14:00:26","632"
"A2JZP4AZI1RTG4","caus_thomas_ss_v1","31QTRG6Q2TE7IB9IB39GQ5LOAQOPYP","6","3","0","0","1","7853","2017-09-13 14:00:27","633"
"A2JZP4AZI1RTG4","caus_thomas_ss_v1","31QTRG6Q2TE7IB9IB39GQ5LOAQOPYP","5","0","1","1","0","8482","2017-09-13 14:00:37","634"
"A2JZP4AZI1RTG4","caus_thomas_ss_v1","31QTRG6Q2TE7IB9IB39GQ5LOAQOPYP","2","2","2","0","0","19525","2017-09-13 14:00:57","635"
"A2JZP4AZI1RTG4","caus_thomas_ss_v1","31QTRG6Q2TE7IB9IB39GQ5LOAQOPYP","6","1","3","1","1","13145","2017-09-13 14:01:11","636"
"A3M26P1CBNLA4U","caus_thomas_ss_v1","39L1G8WVWQS3LGTS1G50ZF7DY9O31U","2","1","3","1","1","127613","2017-09-13 14:01:29","637"
"A21H2UDDHN8ZF","caus_thomas_ss_v1","3U088ZLJVKU05PAYFHC2Q7Z0RACW0Q","8","1","0","1","1","58055","2017-09-13 14:03:31","638"
"A8TIL9U6YHG5","caus_thomas_ss_v1","3RYC5T2D73UYLAXWX8HMI9SR739PRN","6","1","0","1","1","40272","2017-09-13 14:03:37","639"
"A21H2UDDHN8ZF","caus_thomas_ss_v1","3U088ZLJVKU05PAYFHC2Q7Z0RACW0Q","5","0","1","1","0","13859","2017-09-13 14:03:46","640"
"A8TIL9U6YHG5","caus_thomas_ss_v1","3RYC5T2D73UYLAXWX8HMI9SR739PRN","3","2","1","0","0","14433","2017-09-13 14:03:53","641"
"A8TIL9U6YHG5","caus_thomas_ss_v1","3RYC5T2D73UYLAXWX8HMI9SR739PRN","7","0","2","1","0","8793","2017-09-13 14:04:02","642"
"AQJWO4YPR3LUQ","caus_thomas_ss_v1","3Y5140Z9DXHLSBUD7LND4HR0K7QIPC","1","3","0","0","1","44631","2017-09-13 14:04:04","643"
"A8TIL9U6YHG5","caus_thomas_ss_v1","3RYC5T2D73UYLAXWX8HMI9SR739PRN","8","3","3","0","1","6050","2017-09-13 14:04:09","644"
"A2NL38BFEE3BVY
","caus_thomas_ss_v1","3NPI0JQDAO6B1PAO1XMHIOT9VO6PT0","3","0","0","1","0","23426","2017-09-13 14:04:58","645"
"A2NL38BFEE3BVY
","caus_thomas_ss_v1","3NPI0JQDAO6B1PAO1XMHIOT9VO6PT0","3","1","1","1","1","10342","2017-09-13 14:05:09","646"
"A2NL38BFEE3BVY
","caus_thomas_ss_v1","3NPI0JQDAO6B1PAO1XMHIOT9VO6PT0","3","2","2","0","0","6319","2017-09-13 14:05:16","647"
"A2NL38BFEE3BVY
","caus_thomas_ss_v1","3NPI0JQDAO6B1PAO1XMHIOT9VO6PT0","3","3","3","0","1","9594","2017-09-13 14:05:27","648"
"AR4UI9K92BUT3","caus_thomas_ss_v1","35GCEFQ6I5P0GCE09RESR9RPBO13ZJ","0","0","0","1","0","25181","2017-09-13 14:05:28","649"
"AR4UI9K92BUT3","caus_thomas_ss_v1","35GCEFQ6I5P0GCE09RESR9RPBO13ZJ","0","1","1","1","1","20560","2017-09-13 14:05:49","650"
"A2C84POENS2UNY","caus_thomas_ss_v1","3AMW0RGHOD3D6C5441059PNH66KPNZ","1","1","0","1","1","67871","2017-09-13 14:05:55","651"
"A1UCB0D27PY623","caus_thomas_ss_v1","3QBD8R3Z21K9Z4JX7W8ULGCR5KTO4M","4","0","0","1","0","33254","2017-09-13 14:06:01","652"
"A21H2UDDHN8ZF","caus_thomas_ss_v1","3U088ZLJVKU05PAYFHC2Q7Z0RACW0Q","4","2","2","0","0","134404","2017-09-13 14:06:01","653"
"A3HMCMIGXMPNXS","caus_thomas_ss_v1","3Y9N9SS8LYCXDB94H9PV0H8MN6S3DL","0","0","0","1","0","49347","2017-09-13 14:06:05","654"
"A2C84POENS2UNY","caus_thomas_ss_v1","3AMW0RGHOD3D6C5441059PNH66KPNZ","1","0","1","1","0","11537","2017-09-13 14:06:07","655"
"A21H2UDDHN8ZF","caus_thomas_ss_v1","3U088ZLJVKU05PAYFHC2Q7Z0RACW0Q","8","3","3","0","1","6965","2017-09-13 14:06:09","656"
"A1UCB0D27PY623","caus_thomas_ss_v1","3QBD8R3Z21K9Z4JX7W8ULGCR5KTO4M","5","3","1","0","1","10175","2017-09-13 14:06:12","657"
"A2C84POENS2UNY","caus_thomas_ss_v1","3AMW0RGHOD3D6C5441059PNH66KPNZ","1","2","2","0","0","5570","2017-09-13 14:06:14","658"
"A2C84POENS2UNY","caus_thomas_ss_v1","3AMW0RGHOD3D6C5441059PNH66KPNZ","1","3","3","0","1","2496","2017-09-13 14:06:18","659"
"AR4UI9K92BUT3","caus_thomas_ss_v1","35GCEFQ6I5P0GCE09RESR9RPBO13ZJ","4","3","2","0","1","30347","2017-09-13 14:06:21","660"
"A1UCB0D27PY623","caus_thomas_ss_v1","3QBD8R3Z21K9Z4JX7W8ULGCR5KTO4M","4","1","2","1","1","8176","2017-09-13 14:06:21","661"
"A3HMCMIGXMPNXS","caus_thomas_ss_v1","3Y9N9SS8LYCXDB94H9PV0H8MN6S3DL","0","1","1","1","1","19017","2017-09-13 14:06:25","662"
"A1UCB0D27PY623","caus_thomas_ss_v1","3QBD8R3Z21K9Z4JX7W8ULGCR5KTO4M","6","2","3","0","0","7470","2017-09-13 14:06:30","663"
"AQJWO4YPR3LUQ","caus_thomas_ss_v1","3Y5140Z9DXHLSBUD7LND4HR0K7QIPC","4","2","1","0","0","147493","2017-09-13 14:06:32","664"
"AR4UI9K92BUT3","caus_thomas_ss_v1","35GCEFQ6I5P0GCE09RESR9RPBO13ZJ","4","2","3","0","0","14763","2017-09-13 14:06:36","665"
"A17D65I948OQZM","caus_thomas_ss_v1","3X66WABAJWJ0PVJVJZQ362BJ0Y73GU","6","1","0","1","1","81010","2017-09-13 14:06:42","666"
"A3HMCMIGXMPNXS","caus_thomas_ss_v1","3Y9N9SS8LYCXDB94H9PV0H8MN6S3DL","0","3","2","0","1","16490","2017-09-13 14:06:43","667"
"A2E3SM3T01ENIR","caus_thomas_ss_v1","3GS6S824SQY3QL25GNE01JVDZ3NNWS","3","1","0","1","1","49690","2017-09-13 14:06:44","668"
"AQJWO4YPR3LUQ","caus_thomas_ss_v1","3Y5140Z9DXHLSBUD7LND4HR0K7QIPC","7","0","2","1","0","12592","2017-09-13 14:06:46","669"
"A3HMCMIGXMPNXS","caus_thomas_ss_v1","3Y9N9SS8LYCXDB94H9PV0H8MN6S3DL","0","2","3","0","0","8131","2017-09-13 14:06:52","670"
"A2P065E9CYMYJL","caus_thomas_ss_v1","3MMN5BL1WZ50H5FHU2OYJ7VGWKIM3K","6","1","0","1","1","13125","2017-09-13 14:07:01","671"
"A17D65I948OQZM","caus_thomas_ss_v1","3X66WABAJWJ0PVJVJZQ362BJ0Y73GU","6","0","1","1","0","19760","2017-09-13 14:07:03","672"
"A2P065E9CYMYJL","caus_thomas_ss_v1","3MMN5BL1WZ50H5FHU2OYJ7VGWKIM3K","2","2","1","0","0","5985","2017-09-13 14:07:08","673"
"A2ZJAEL03VTZ8","caus_thomas_ss_v1","3O6CYIULED2GLBMEDOQMFEN77ZGUWR","6","0","0","1","0","40768","2017-09-13 14:07:10","674"
"A2E3SM3T01ENIR","caus_thomas_ss_v1","3GS6S824SQY3QL25GNE01JVDZ3NNWS","2","0","1","1","0","27170","2017-09-13 14:07:12","675"
"A2P065E9CYMYJL","caus_thomas_ss_v1","3MMN5BL1WZ50H5FHU2OYJ7VGWKIM3K","4","0","2","1","0","8017","2017-09-13 14:07:17","676"
"A2E3SM3T01ENIR","caus_thomas_ss_v1","3GS6S824SQY3QL25GNE01JVDZ3NNWS","5","3","2","0","1","6605","2017-09-13 14:07:20","677"
"A2P065E9CYMYJL","caus_thomas_ss_v1","3MMN5BL1WZ50H5FHU2OYJ7VGWKIM3K","6","3","3","0","1","2865","2017-09-13 14:07:21","678"
"A2ZJAEL03VTZ8","caus_thomas_ss_v1","3O6CYIULED2GLBMEDOQMFEN77ZGUWR","3","2","1","0","0","11788","2017-09-13 14:07:23","679"
"AQJWO4YPR3LUQ","caus_thomas_ss_v1","3Y5140Z9DXHLSBUD7LND4HR0K7QIPC","7","1","3","1","1","38425","2017-09-13 14:07:25","680"
"A17D65I948OQZM","caus_thomas_ss_v1","3X66WABAJWJ0PVJVJZQ362BJ0Y73GU","6","2","2","0","0","22314","2017-09-13 14:07:26","681"
"A2E3SM3T01ENIR","caus_thomas_ss_v1","3GS6S824SQY3QL25GNE01JVDZ3NNWS","0","2","3","0","0","12533","2017-09-13 14:07:33","682"
"AP6CJAMKZ7GR4","caus_thomas_ss_v1","3Z3ZLGNNSIVR2KD9MVVF0GFL6LFQ3B","0","0","0","1","0","23965","2017-09-13 14:07:33","683"
"A2ZJAEL03VTZ8","caus_thomas_ss_v1","3O6CYIULED2GLBMEDOQMFEN77ZGUWR","7","3","2","0","1","12890","2017-09-13 14:07:37","684"
"A2O762LZEZN3JC","caus_thomas_ss_v1","3F1567XTNW6DHM2P34WPRTI76DPQ9S","6","3","0","0","1","37983","2017-09-13 14:07:43","685"
"A17D65I948OQZM","caus_thomas_ss_v1","3X66WABAJWJ0PVJVJZQ362BJ0Y73GU","6","3","3","0","1","17058","2017-09-13 14:07:44","686"
"A2ZJAEL03VTZ8","caus_thomas_ss_v1","3O6CYIULED2GLBMEDOQMFEN77ZGUWR","3","1","3","1","1","10905","2017-09-13 14:07:49","687"
"AP6CJAMKZ7GR4","caus_thomas_ss_v1","3Z3ZLGNNSIVR2KD9MVVF0GFL6LFQ3B","5","3","1","0","1","15215","2017-09-13 14:07:49","688"
"A2O762LZEZN3JC","caus_thomas_ss_v1","3F1567XTNW6DHM2P34WPRTI76DPQ9S","7","0","1","1","0","5309","2017-09-13 14:07:49","689"
"A2O762LZEZN3JC","caus_thomas_ss_v1","3F1567XTNW6DHM2P34WPRTI76DPQ9S","6","1","2","1","1","5978","2017-09-13 14:07:57","690"
"AP6CJAMKZ7GR4","caus_thomas_ss_v1","3Z3ZLGNNSIVR2KD9MVVF0GFL6LFQ3B","4","1","2","1","1","9178","2017-09-13 14:08:00","691"
"A2O762LZEZN3JC","caus_thomas_ss_v1","3F1567XTNW6DHM2P34WPRTI76DPQ9S","7","2","3","0","0","5221","2017-09-13 14:08:03","692"
"AP6CJAMKZ7GR4","caus_thomas_ss_v1","3Z3ZLGNNSIVR2KD9MVVF0GFL6LFQ3B","6","2","3","0","0","11454","2017-09-13 14:08:12","693"
"A1Y508FNU04ZLH","caus_thomas_ss_v1","3MB8LZR5BFUM7L53FWFI0GXT71ELKS","8","1","0","1","1","58935","2017-09-13 14:10:35","694"
"A1Y508FNU04ZLH","caus_thomas_ss_v1","3MB8LZR5BFUM7L53FWFI0GXT71ELKS","0","3","1","0","1","36108","2017-09-13 14:11:13","695"
"A2TBXASXZIRNNW","caus_thomas_ss_v1","3Y54SXRO1LMOTUIKIJLBSUG835YUT1","0","2","0","0","0","23576","2017-09-13 14:11:19","696"
"A2TBXASXZIRNNW","caus_thomas_ss_v1","3Y54SXRO1LMOTUIKIJLBSUG835YUT1","0","0","1","1","0","8477","2017-09-13 14:11:29","697"
"A2TBXASXZIRNNW","caus_thomas_ss_v1","3Y54SXRO1LMOTUIKIJLBSUG835YUT1","0","3","2","0","1","5566","2017-09-13 14:11:36","698"
"A2TBXASXZIRNNW","caus_thomas_ss_v1","3Y54SXRO1LMOTUIKIJLBSUG835YUT1","0","1","3","1","1","2052","2017-09-13 14:11:39","699"
"A1Y508FNU04ZLH","caus_thomas_ss_v1","3MB8LZR5BFUM7L53FWFI0GXT71ELKS","0","2","2","0","0","33403","2017-09-13 14:11:47","700"
"A1Y508FNU04ZLH","caus_thomas_ss_v1","3MB8LZR5BFUM7L53FWFI0GXT71ELKS","0","0","3","1","0","18630","2017-09-13 14:12:07","701"
"A2O5J0420C1UPC","caus_thomas_ss_v1","3IFS6Q0HJIKI53A5Z2R7ZMWB7RXISS","6","1","0","1","1","9516","2017-09-13 14:12:24","702"
"A2O5J0420C1UPC","caus_thomas_ss_v1","3IFS6Q0HJIKI53A5Z2R7ZMWB7RXISS","5","3","1","0","1","3873","2017-09-13 14:12:29","703"
"A2O5J0420C1UPC","caus_thomas_ss_v1","3IFS6Q0HJIKI53A5Z2R7ZMWB7RXISS","5","2","2","0","0","3817","2017-09-13 14:12:33","704"
"A2O5J0420C1UPC","caus_thomas_ss_v1","3IFS6Q0HJIKI53A5Z2R7ZMWB7RXISS","4","0","3","1","0","6133","2017-09-13 14:12:41","705"
"A25R2OI9L2Q1OW","caus_thomas_ss_v1","3I3WADAZ9Q5RVNNXL1R4Q8I55GOO5R","4","2","0","0","0","34741","2017-09-13 14:13:30","706"
"A25R2OI9L2Q1OW","caus_thomas_ss_v1","3I3WADAZ9Q5RVNNXL1R4Q8I55GOO5R","4","1","1","1","1","17184","2017-09-13 14:13:49","707"
"A25R2OI9L2Q1OW","caus_thomas_ss_v1","3I3WADAZ9Q5RVNNXL1R4Q8I55GOO5R","4","3","2","0","1","37472","2017-09-13 14:14:27","708"
"A25R2OI9L2Q1OW","caus_thomas_ss_v1","3I3WADAZ9Q5RVNNXL1R4Q8I55GOO5R","4","0","3","1","0","8500","2017-09-13 14:14:37","709"
"A1OU8F92A7M3MR","caus_thomas_ss_v1","304SM51WA358IVWZTSZQDZSYC1DSBT","5","3","0","0","1","37043","2017-09-13 14:15:17","710"
"A1OU8F92A7M3MR","caus_thomas_ss_v1","304SM51WA358IVWZTSZQDZSYC1DSBT","7","1","1","1","1","10284","2017-09-13 14:15:28","711"
"A3GPPNKEAT48D8","caus_thomas_ss_v1","324G5B4FB39LFA9X794QYR0JYJ407T","8","3","0","0","1","27750","2017-09-13 14:15:29","712"
"A3GPPNKEAT48D8","caus_thomas_ss_v1","324G5B4FB39LFA9X794QYR0JYJ407T","6","1","1","1","1","9544","2017-09-13 14:15:39","713"
"A1OU8F92A7M3MR","caus_thomas_ss_v1","304SM51WA358IVWZTSZQDZSYC1DSBT","3","2","2","0","0","14367","2017-09-13 14:15:43","714"
"A3GPPNKEAT48D8","caus_thomas_ss_v1","324G5B4FB39LFA9X794QYR0JYJ407T","2","2","2","0","0","3249","2017-09-13 14:15:44","715"
"A3GPPNKEAT48D8","caus_thomas_ss_v1","324G5B4FB39LFA9X794QYR0JYJ407T","5","0","3","1","0","2839","2017-09-13 14:15:47","716"
"A1OU8F92A7M3MR","caus_thomas_ss_v1","304SM51WA358IVWZTSZQDZSYC1DSBT","6","0","3","1","0","16723","2017-09-13 14:16:01","717"
"AAASQIW3J32OL","caus_thomas_ss_v1","3PQMUDRV7R7TBP79UQXTVKQOYTVII0","4","0","0","1","0","29740","2017-09-13 14:16:41","718"
"AAASQIW3J32OL","caus_thomas_ss_v1","3PQMUDRV7R7TBP79UQXTVKQOYTVII0","4","3","1","0","1","16916","2017-09-13 14:16:59","719"
"AAASQIW3J32OL","caus_thomas_ss_v1","3PQMUDRV7R7TBP79UQXTVKQOYTVII0","4","2","2","0","0","13559","2017-09-13 14:17:14","720"
"AAASQIW3J32OL","caus_thomas_ss_v1","3PQMUDRV7R7TBP79UQXTVKQOYTVII0","4","1","3","1","1","12182","2017-09-13 14:17:27","721"
"A3G6L97AX9KR7F","caus_thomas_ss_v1","39GAF6DQWR1NXPVBLQB6IAZWPTGV1I","4","3","0","0","1","100527","2017-09-13 14:17:52","722"
"A271V19C06841K","caus_thomas_ss_v1","3A4NIXBJ760HX95608SYFTPXW69LMX","1","3","0","0","1","29016","2017-09-13 14:17:52","723"
"A271V19C06841K","caus_thomas_ss_v1","3A4NIXBJ760HX95608SYFTPXW69LMX","4","1","1","1","1","9738","2017-09-13 14:18:03","724"
"A271V19C06841K","caus_thomas_ss_v1","3A4NIXBJ760HX95608SYFTPXW69LMX","3","0","2","1","0","2915","2017-09-13 14:18:07","725"
"A271V19C06841K","caus_thomas_ss_v1","3A4NIXBJ760HX95608SYFTPXW69LMX","1","2","3","0","0","5114","2017-09-13 14:18:13","726"
"A3G6L97AX9KR7F","caus_thomas_ss_v1","39GAF6DQWR1NXPVBLQB6IAZWPTGV1I","4","0","1","1","0","64037","2017-09-13 14:18:57","727"
"A3G6L97AX9KR7F","caus_thomas_ss_v1","39GAF6DQWR1NXPVBLQB6IAZWPTGV1I","4","2","2","0","0","31147","2017-09-13 14:19:29","728"
"A32QYANWMXW8EL","caus_thomas_ss_v1","317HQ483I7TLPQI0R6AL0SM5KSPNIL","5","2","0","0","0","184601","2017-09-13 14:19:49","729"
"A32QYANWMXW8EL","caus_thomas_ss_v1","317HQ483I7TLPQI0R6AL0SM5KSPNIL","7","0","1","1","0","12050","2017-09-13 14:20:02","730"
"A1TGV7LT6LTIQU","caus_thomas_ss_v1","31EUONYN2V48TH2CRS9HU6C4I4QVO5","1","2","0","0","0","42787","2017-09-13 14:20:07","731"
"A32QYANWMXW8EL","caus_thomas_ss_v1","317HQ483I7TLPQI0R6AL0SM5KSPNIL","3","1","2","1","1","14571","2017-09-13 14:20:18","732"
"A32QYANWMXW8EL","caus_thomas_ss_v1","317HQ483I7TLPQI0R6AL0SM5KSPNIL","0","3","3","0","1","11515","2017-09-13 14:20:30","733"
"A1TGV7LT6LTIQU","caus_thomas_ss_v1","31EUONYN2V48TH2CRS9HU6C4I4QVO5","1","1","1","1","1","24085","2017-09-13 14:20:32","734"
"A3G6L97AX9KR7F","caus_thomas_ss_v1","39GAF6DQWR1NXPVBLQB6IAZWPTGV1I","4","1","3","1","1","74743","2017-09-13 14:20:45","735"
"A1TGV7LT6LTIQU","caus_thomas_ss_v1","31EUONYN2V48TH2CRS9HU6C4I4QVO5","1","3","2","0","1","15793","2017-09-13 14:20:49","736"
"AK3H5QRAROFGP","caus_thomas_ss_v1","32AT8R96GLANEU55TJGLIPKM1MKUSC","5","1","0","1","1","42577","2017-09-13 14:20:57","737"
"A1TGV7LT6LTIQU","caus_thomas_ss_v1","31EUONYN2V48TH2CRS9HU6C4I4QVO5","1","0","3","1","0","15188","2017-09-13 14:21:05","738"
"AK3H5QRAROFGP","caus_thomas_ss_v1","32AT8R96GLANEU55TJGLIPKM1MKUSC","5","2","1","0","0","24788","2017-09-13 14:21:23","739"
"AK3H5QRAROFGP","caus_thomas_ss_v1","32AT8R96GLANEU55TJGLIPKM1MKUSC","5","0","2","1","0","11550","2017-09-13 14:21:35","740"
"AK3H5QRAROFGP","caus_thomas_ss_v1","32AT8R96GLANEU55TJGLIPKM1MKUSC","6","3","3","0","1","9651","2017-09-13 14:21:46","741"
"AKZUP3VY594E8","caus_thomas_ss_v1","3JCG6DTRV3RJ9LJBK67BDO8WGDTQQE","5","1","0","1","1","23940","2017-09-13 14:22:12","742"
"AKZUP3VY594E8","caus_thomas_ss_v1","3JCG6DTRV3RJ9LJBK67BDO8WGDTQQE","2","0","1","1","0","10638","2017-09-13 14:22:24","743"
"AKZUP3VY594E8","caus_thomas_ss_v1","3JCG6DTRV3RJ9LJBK67BDO8WGDTQQE","7","3","2","0","1","10286","2017-09-13 14:22:35","744"
"AKZUP3VY594E8","caus_thomas_ss_v1","3JCG6DTRV3RJ9LJBK67BDO8WGDTQQE","4","2","3","0","0","9492","2017-09-13 14:22:46","745"
"A26M997VYVK0E6","caus_thomas_ss_v1","3P4RDNWND57P60RFC8IT7L5OB8KIJC","6","1","0","1","1","73233","2017-09-13 14:23:59","746"
"A29TV2MF4893DA","caus_thomas_ss_v1","39GXDJN2OTF58PFWKBKLXKM43ZMV82","0","2","0","0","0","53707","2017-09-13 14:23:59","747"
"A26M997VYVK0E6","caus_thomas_ss_v1","3P4RDNWND57P60RFC8IT7L5OB8KIJC","3","2","1","0","0","7803","2017-09-13 14:24:08","748"
"A26M997VYVK0E6","caus_thomas_ss_v1","3P4RDNWND57P60RFC8IT7L5OB8KIJC","3","3","2","0","1","9675","2017-09-13 14:24:18","749"
"A29TV2MF4893DA","caus_thomas_ss_v1","39GXDJN2OTF58PFWKBKLXKM43ZMV82","0","0","1","1","0","22071","2017-09-13 14:24:22","750"
"A26M997VYVK0E6","caus_thomas_ss_v1","3P4RDNWND57P60RFC8IT7L5OB8KIJC","5","0","3","1","0","7468","2017-09-13 14:24:27","751"
"A29TV2MF4893DA","caus_thomas_ss_v1","39GXDJN2OTF58PFWKBKLXKM43ZMV82","0","1","2","1","1","11230","2017-09-13 14:24:35","752"
"A29TV2MF4893DA","caus_thomas_ss_v1","39GXDJN2OTF58PFWKBKLXKM43ZMV82","0","3","3","0","1","14788","2017-09-13 14:24:50","753"
"AITLTT4ZKSZIM","caus_thomas_ss_v1","3VNXK88KKCJ5MUY6P3QZXGHFN54V9R","5","2","0","0","0","38522","2017-09-13 14:25:11","754"
"AITLTT4ZKSZIM","caus_thomas_ss_v1","3VNXK88KKCJ5MUY6P3QZXGHFN54V9R","5","3","1","0","1","13527","2017-09-13 14:25:26","755"
"AITLTT4ZKSZIM","caus_thomas_ss_v1","3VNXK88KKCJ5MUY6P3QZXGHFN54V9R","6","1","2","1","1","2872","2017-09-13 14:25:29","756"
"AITLTT4ZKSZIM","caus_thomas_ss_v1","3VNXK88KKCJ5MUY6P3QZXGHFN54V9R","6","0","3","1","0","2691","2017-09-13 14:25:33","757"
"AOTCPS24JM5DQ","caus_thomas_ss_v1","3QRYMNZ7FYIBY4YBLI9PEZOEV95NT2","5","0","0","1","0","3808","2017-09-13 14:27:11","758"
"AOTCPS24JM5DQ","caus_thomas_ss_v1","3QRYMNZ7FYIBY4YBLI9PEZOEV95NT2","3","3","1","0","1","1916","2017-09-13 14:27:13","759"
"AOTCPS24JM5DQ","caus_thomas_ss_v1","3QRYMNZ7FYIBY4YBLI9PEZOEV95NT2","6","2","2","0","0","1911","2017-09-13 14:27:16","760"
"AOTCPS24JM5DQ","caus_thomas_ss_v1","3QRYMNZ7FYIBY4YBLI9PEZOEV95NT2","3","1","3","1","1","1694","2017-09-13 14:27:19","761"
"A319HGTKM0UY0V","caus_thomas_ss_v1","3R6BYFZZP7D6RTUES4R9VX0B6E7XFO","6","2","0","0","0","57062","2017-09-13 14:29:00","762"
"A319HGTKM0UY0V","caus_thomas_ss_v1","3R6BYFZZP7D6RTUES4R9VX0B6E7XFO","2","1","1","1","1","16342","2017-09-13 14:29:18","763"
"A319HGTKM0UY0V","caus_thomas_ss_v1","3R6BYFZZP7D6RTUES4R9VX0B6E7XFO","1","0","2","1","0","12386","2017-09-13 14:29:31","764"
"A1KQWBK5WHCNYQ","caus_thomas_ss_v1","3TVRFO09GKGSRL4AEFU7QA5V3ATXLT","4","0","0","1","0","93157","2017-09-13 14:29:34","765"
"A319HGTKM0UY0V","caus_thomas_ss_v1","3R6BYFZZP7D6RTUES4R9VX0B6E7XFO","8","3","3","0","1","10917","2017-09-13 14:29:43","766"
"A1KQWBK5WHCNYQ","caus_thomas_ss_v1","3TVRFO09GKGSRL4AEFU7QA5V3ATXLT","6","1","1","1","1","17831","2017-09-13 14:29:53","767"
"A1KQWBK5WHCNYQ","caus_thomas_ss_v1","3TVRFO09GKGSRL4AEFU7QA5V3ATXLT","4","2","2","0","0","13941","2017-09-13 14:30:08","768"
"A1KQWBK5WHCNYQ","caus_thomas_ss_v1","3TVRFO09GKGSRL4AEFU7QA5V3ATXLT","6","3","3","0","1","6844","2017-09-13 14:30:15","769"
"A1MG7LT2628KLU","caus_thomas_ss_v1","3VZLGYJEYLBCWALETGLGYPGTIJ1XZC","5","3","0","0","1","78405","2017-09-13 14:31:13","770"
"A1MG7LT2628KLU","caus_thomas_ss_v1","3VZLGYJEYLBCWALETGLGYPGTIJ1XZC","4","0","1","1","0","30765","2017-09-13 14:31:45","771"
"A1MG7LT2628KLU","caus_thomas_ss_v1","3VZLGYJEYLBCWALETGLGYPGTIJ1XZC","2","2","2","0","0","14061","2017-09-13 14:32:00","772"
"A1MG7LT2628KLU","caus_thomas_ss_v1","3VZLGYJEYLBCWALETGLGYPGTIJ1XZC","3","1","3","1","1","35421","2017-09-13 14:32:36","773"
"A2CQP9DZSDUC5V","caus_thomas_ss_v1","35GMH2SV3EIRR6GQW2K7U2OII9NOES","7","3","0","0","1","58199","2017-09-13 14:33:55","774"
"A2CQP9DZSDUC5V","caus_thomas_ss_v1","35GMH2SV3EIRR6GQW2K7U2OII9NOES","3","2","1","0","0","23349","2017-09-13 14:34:20","775"
"A2CQP9DZSDUC5V","caus_thomas_ss_v1","35GMH2SV3EIRR6GQW2K7U2OII9NOES","4","0","2","1","0","14477","2017-09-13 14:34:35","776"
"A2CQP9DZSDUC5V","caus_thomas_ss_v1","35GMH2SV3EIRR6GQW2K7U2OII9NOES","6","1","3","1","1","9488","2017-09-13 14:34:45","777"
"A1USR9JCAMDGM3","caus_thomas_ss_v1","3DOCMVPBTNFD3RTROMND50IM6RJNN1","8","0","0","1","0","18180","2017-09-13 14:34:56","778"
"A1USR9JCAMDGM3","caus_thomas_ss_v1","3DOCMVPBTNFD3RTROMND50IM6RJNN1","8","1","1","1","1","7853","2017-09-13 14:35:05","779"
"A1USR9JCAMDGM3","caus_thomas_ss_v1","3DOCMVPBTNFD3RTROMND50IM6RJNN1","0","3","2","0","1","11269","2017-09-13 14:35:18","780"
"A1USR9JCAMDGM3","caus_thomas_ss_v1","3DOCMVPBTNFD3RTROMND50IM6RJNN1","0","2","3","0","0","2670","2017-09-13 14:35:21","781"
"A15VRRHQCLJHC8
","caus_thomas_ss_v1","3UWN2HHPUY6AJ4LWWI4Z4USSTQRNSD","4","3","0","0","1","37446","2017-09-13 14:35:28","782"
"A15VRRHQCLJHC8
","caus_thomas_ss_v1","3UWN2HHPUY6AJ4LWWI4Z4USSTQRNSD","4","0","1","1","0","13036","2017-09-13 14:35:42","783"
"A15VRRHQCLJHC8
","caus_thomas_ss_v1","3UWN2HHPUY6AJ4LWWI4Z4USSTQRNSD","4","1","2","1","1","12974","2017-09-13 14:35:56","784"
"A15VRRHQCLJHC8
","caus_thomas_ss_v1","3UWN2HHPUY6AJ4LWWI4Z4USSTQRNSD","4","2","3","0","0","6627","2017-09-13 14:36:04","785"
"A3PGUPNMOU5BPW","caus_thomas_ss_v1","3J88R45B2GZII6J867NE7REF8KUXPR","5","0","0","1","0","31962","2017-09-13 14:40:27","786"
"A3PGUPNMOU5BPW","caus_thomas_ss_v1","3J88R45B2GZII6J867NE7REF8KUXPR","5","2","1","0","0","43239","2017-09-13 14:41:12","787"
"AIWSB4YTN32GF
","caus_thomas_ss_v1","3JAOYWH7VI52QPMCBZOTA7JDW739LN","3","2","0","0","0","10240","2017-09-13 14:41:23","788"
"AIWSB4YTN32GF
","caus_thomas_ss_v1","3JAOYWH7VI52QPMCBZOTA7JDW739LN","2","3","1","0","1","1081","2017-09-13 14:41:26","789"
"AIWSB4YTN32GF
","caus_thomas_ss_v1","3JAOYWH7VI52QPMCBZOTA7JDW739LN","1","0","2","1","0","1320","2017-09-13 14:41:28","790"
"AIWSB4YTN32GF
","caus_thomas_ss_v1","3JAOYWH7VI52QPMCBZOTA7JDW739LN","6","1","3","1","1","2167","2017-09-13 14:41:31","791"
"A3PGUPNMOU5BPW","caus_thomas_ss_v1","3J88R45B2GZII6J867NE7REF8KUXPR","3","3","2","0","1","19619","2017-09-13 14:41:32","792"
"AKA9XW7UANMPJ","caus_thomas_ss_v1","3DZQRBDBSLG3F0SMEZKKVGUMO90S32","0","3","0","0","1","56630","2017-09-13 14:41:33","793"
"A3PGUPNMOU5BPW","caus_thomas_ss_v1","3J88R45B2GZII6J867NE7REF8KUXPR","3","1","3","1","1","5241","2017-09-13 14:41:38","794"
"A2SHX1MACQJ5K5","caus_thomas_ss_v1","3OE22WJIGIPB1EQS1FRGNP5LJYZUQN","0","2","0","0","0","20475","2017-09-13 14:41:47","795"
"A2SHX1MACQJ5K5","caus_thomas_ss_v1","3OE22WJIGIPB1EQS1FRGNP5LJYZUQN","0","0","1","1","0","9799","2017-09-13 14:41:57","796"
"AKA9XW7UANMPJ","caus_thomas_ss_v1","3DZQRBDBSLG3F0SMEZKKVGUMO90S32","0","1","1","1","1","27662","2017-09-13 14:42:02","797"
"A2SHX1MACQJ5K5","caus_thomas_ss_v1","3OE22WJIGIPB1EQS1FRGNP5LJYZUQN","0","3","2","0","1","6868","2017-09-13 14:42:05","798"
"A2SHX1MACQJ5K5","caus_thomas_ss_v1","3OE22WJIGIPB1EQS1FRGNP5LJYZUQN","0","1","3","1","1","5520","2017-09-13 14:42:12","799"
"AKA9XW7UANMPJ","caus_thomas_ss_v1","3DZQRBDBSLG3F0SMEZKKVGUMO90S32","0","2","2","0","0","20385","2017-09-13 14:42:23","800"
"AKA9XW7UANMPJ","caus_thomas_ss_v1","3DZQRBDBSLG3F0SMEZKKVGUMO90S32","0","0","3","1","0","18675","2017-09-13 14:42:43","801"
"A1T0NW527WZT7G","caus_thomas_ss_v1","3PW9OPU9PQLE0YX9XGRVG52LSVT12M","2","1","0","1","1","10459","2017-09-13 14:45:18","802"
"A1T0NW527WZT7G","caus_thomas_ss_v1","3PW9OPU9PQLE0YX9XGRVG52LSVT12M","3","0","1","1","0","3043","2017-09-13 14:45:22","803"
"A1T0NW527WZT7G","caus_thomas_ss_v1","3PW9OPU9PQLE0YX9XGRVG52LSVT12M","6","2","2","0","0","2355","2017-09-13 14:45:25","804"
