"subject","version","assignmentId","rating","question_ind","trial_ind","focal_high","alt_high","rt","stamp","id"
"A7KLTVEIASF4J","caus_thomas_as_v1","3SB4CE2TJVWBV2D6HO5HHWPK9ZIAXE","4","3","0","0","1","3097","2017-09-13 17:14:10","828"
"A7KLTVEIASF4J","caus_thomas_as_v1","3SB4CE2TJVWBV2D6HO5HHWPK9ZIAXE","2","2","1","1","1","1708","2017-09-13 17:14:13","829"
"A7KLTVEIASF4J","caus_thomas_as_v1","3SB4CE2TJVWBV2D6HO5HHWPK9ZIAXE","8","1","2","0","0","1733","2017-09-13 17:14:16","830"
"A7KLTVEIASF4J","caus_thomas_as_v1","3SB4CE2TJVWBV2D6HO5HHWPK9ZIAXE","3","0","3","1","0","1062","2017-09-13 17:14:18","831"
"AD8JNBDMO3NED","caus_thomas_as_v1","3CCZ6YKWR7KOO0JRJC8MTINGAIQ59K","4","1","0","0","0","9205","2017-09-13 17:14:19","832"
"A3C9PTN49QTVFN","caus_thomas_as_v1","3E1QT0TDFPA0MJVWL4L2IVWAVYEI8I","6","1","0","0","0","15675","2017-09-13 17:14:21","833"
"AD8JNBDMO3NED","caus_thomas_as_v1","3CCZ6YKWR7KOO0JRJC8MTINGAIQ59K","5","0","1","1","0","2578","2017-09-13 17:14:22","834"
"A3OEQPP51YIIMQ","caus_thomas_as_v1","3RYC5T2D73UYLAXWX8HMI9SR74XPRD","4","3","0","0","1","2065","2017-09-13 17:14:24","835"
"AD8JNBDMO3NED","caus_thomas_as_v1","3CCZ6YKWR7KOO0JRJC8MTINGAIQ59K","3","2","2","1","1","1766","2017-09-13 17:14:25","836"
"A1QVNF19XSRSD7","caus_thomas_as_v1","3Q8GYXHFEP3QMYQUVWIDV8OOG3T5C1","4","3","0","0","1","2435","2017-09-13 17:14:26","837"
"A3OEQPP51YIIMQ","caus_thomas_as_v1","3RYC5T2D73UYLAXWX8HMI9SR74XPRD","5","2","1","1","1","1914","2017-09-13 17:14:27","838"
"AD8JNBDMO3NED","caus_thomas_as_v1","3CCZ6YKWR7KOO0JRJC8MTINGAIQ59K","4","3","3","0","1","2595","2017-09-13 17:14:28","839"
"A3OEQPP51YIIMQ","caus_thomas_as_v1","3RYC5T2D73UYLAXWX8HMI9SR74XPRD","3","1","2","0","0","1829","2017-09-13 17:14:30","840"
"A1QVNF19XSRSD7","caus_thomas_as_v1","3Q8GYXHFEP3QMYQUVWIDV8OOG3T5C1","3","0","1","1","0","3403","2017-09-13 17:14:31","841"
"A3C9PTN49QTVFN","caus_thomas_as_v1","3E1QT0TDFPA0MJVWL4L2IVWAVYEI8I","5","3","1","0","1","10409","2017-09-13 17:14:32","842"
"A3OEQPP51YIIMQ","caus_thomas_as_v1","3RYC5T2D73UYLAXWX8HMI9SR74XPRD","5","0","3","1","0","1717","2017-09-13 17:14:32","843"
"A1QVNF19XSRSD7","caus_thomas_as_v1","3Q8GYXHFEP3QMYQUVWIDV8OOG3T5C1","5","2","2","1","1","2706","2017-09-13 17:14:34","844"
"A1QVNF19XSRSD7","caus_thomas_as_v1","3Q8GYXHFEP3QMYQUVWIDV8OOG3T5C1","3","1","3","0","0","4956","2017-09-13 17:14:40","845"
"A33FSJRW7E1XVV","caus_thomas_as_v1","3J88R45B2GZII6J867NE7REF8LIPX9","2","2","0","1","1","2619","2017-09-13 17:14:43","846"
"A33FSJRW7E1XVV","caus_thomas_as_v1","3J88R45B2GZII6J867NE7REF8LIPX9","4","3","1","0","1","1913","2017-09-13 17:14:45","847"
"A33FSJRW7E1XVV","caus_thomas_as_v1","3J88R45B2GZII6J867NE7REF8LIPX9","4","0","2","1","0","1505","2017-09-13 17:14:48","848"
"A3C9PTN49QTVFN","caus_thomas_as_v1","3E1QT0TDFPA0MJVWL4L2IVWAVYEI8I","6","2","2","1","1","16743","2017-09-13 17:14:50","849"
"A33FSJRW7E1XVV","caus_thomas_as_v1","3J88R45B2GZII6J867NE7REF8LIPX9","2","1","3","0","0","1293","2017-09-13 17:14:50","850"
"A1IHPAWH0IF4AY","caus_thomas_as_v1","3I2PTA7R3TVXYILG71NEH2WNH8PKQ6","6","3","0","0","1","32606","2017-09-13 17:14:51","851"
"AJACXA5FC5BYZ","caus_thomas_as_v1","326O153BMIZ0N9P16T6RJ8CJEW4DEA","7","3","0","0","1","37710","2017-09-13 17:14:57","852"
"A288TV72SGDQWE","caus_thomas_as_v1","3Y5140Z9DXHLSBUD7LND4HR0K8EIP2","5","2","0","1","1","21021","2017-09-13 17:14:59","853"
"A3C9PTN49QTVFN","caus_thomas_as_v1","3E1QT0TDFPA0MJVWL4L2IVWAVYEI8I","5","0","3","1","0","10003","2017-09-13 17:15:01","854"
"ATR6RB1RULOC0","caus_thomas_as_v1","33PPUNGG386SZEZ2KHFO97U5H34RZ0","8","0","0","1","0","32373","2017-09-13 17:15:01","855"
"AGNJKSH5LFKXZ","caus_thomas_as_v1","32EYX73OY0ABDF5SEUGGSFFQFLPRUB","6","2","0","1","1","38886","2017-09-13 17:15:03","856"
"A1VVR9MA1P9HWJ","caus_thomas_as_v1","3YDGXNSEOZV6ECWH0FJYOUMRQGD84T","7","0","0","1","0","37760","2017-09-13 17:15:04","857"
"A23JA6ICO4BPQ5","caus_thomas_as_v1","3AWETUDC92TF6FWJUULFVFTEU7LIZN","5","1","0","0","0","12893","2017-09-13 17:15:07","858"
"A38ECJNH8AQKV4
","caus_thomas_as_v1","33CUSNVVNND7XDJJCI9B562WS29880","6","0","0","1","0","30682","2017-09-13 17:15:08","859"
"A2M9EE6KTM8F8I
","caus_thomas_as_v1","3AZHRG4CU4L3ER8A5X10LAO3TI603E","4","0","0","1","0","24122","2017-09-13 17:15:12","860"
"ABQ7HW805MTU3","caus_thomas_as_v1","36U2A8VAG1067KC2YB48UOZPGH6KY9","3","2","0","1","1","45716","2017-09-13 17:15:13","861"
"AJACXA5FC5BYZ","caus_thomas_as_v1","326O153BMIZ0N9P16T6RJ8CJEW4DEA","4","2","1","1","1","15166","2017-09-13 17:15:14","862"
"A23JA6ICO4BPQ5","caus_thomas_as_v1","3AWETUDC92TF6FWJUULFVFTEU7LIZN","4","0","1","1","0","7280","2017-09-13 17:15:15","863"
"A288TV72SGDQWE","caus_thomas_as_v1","3Y5140Z9DXHLSBUD7LND4HR0K8EIP2","7","1","1","0","0","15181","2017-09-13 17:15:15","864"
"AGNJKSH5LFKXZ","caus_thomas_as_v1","32EYX73OY0ABDF5SEUGGSFFQFLPRUB","7","3","1","0","1","15953","2017-09-13 17:15:19","865"
"A22LLCN5WBKJJI","caus_thomas_as_v1","31IBVUNM9S0EN4PJSPQR7C3QQ4NFVT","5","2","0","1","1","42869","2017-09-13 17:15:20","866"
"ATR6RB1RULOC0","caus_thomas_as_v1","33PPUNGG386SZEZ2KHFO97U5H34RZ0","8","1","1","0","0","18633","2017-09-13 17:15:20","867"
"A23437BMZ5T1FH","caus_thomas_as_v1","3LEP4MGT3G12G6DHW241I06YBZRDBA","8","1","0","0","0","60894","2017-09-13 17:15:20","868"
"A3S7I1TRSRWO73","caus_thomas_as_v1","31QNSG6A5RU3XZE02DH5R661HI387D","8","3","0","0","1","40161","2017-09-13 17:15:21","869"
"A38ECJNH8AQKV4
","caus_thomas_as_v1","33CUSNVVNND7XDJJCI9B562WS29880","6","1","1","0","0","14894","2017-09-13 17:15:24","870"
"AJACXA5FC5BYZ","caus_thomas_as_v1","326O153BMIZ0N9P16T6RJ8CJEW4DEA","6","1","2","0","0","9590","2017-09-13 17:15:24","871"
"A23JA6ICO4BPQ5","caus_thomas_as_v1","3AWETUDC92TF6FWJUULFVFTEU7LIZN","4","2","2","1","1","8687","2017-09-13 17:15:25","872"
"A3FM4IDHKJ35WI","caus_thomas_as_v1","3U0SRXB7CD6YIPLJHT4UEKNW7PWNRF","6","2","0","1","1","36276","2017-09-13 17:15:25","873"
"A1VVR9MA1P9HWJ","caus_thomas_as_v1","3YDGXNSEOZV6ECWH0FJYOUMRQGD84T","7","3","1","0","1","20411","2017-09-13 17:15:25","874"
"A1OQIXAU1SEJ4P","caus_thomas_as_v1","378XPAWRUCEE57OBI25GEM25LMEIAM","2","2","0","1","1","34426","2017-09-13 17:15:26","875"
"A1IHPAWH0IF4AY","caus_thomas_as_v1","3I2PTA7R3TVXYILG71NEH2WNH8PKQ6","8","2","1","1","1","34328","2017-09-13 17:15:26","876"
"A3ICC7SGEF40KR","caus_thomas_as_v1","3G5W44VEU7J6LTR245I2NOSLBLGGK7","4","0","0","1","0","30786","2017-09-13 17:15:29","877"
"A288TV72SGDQWE","caus_thomas_as_v1","3Y5140Z9DXHLSBUD7LND4HR0K8EIP2","5","3","2","0","1","13781","2017-09-13 17:15:30","878"
"A22LQL0UHAOMC9","caus_thomas_as_v1","3KB8R4ZV1E85SQN8YS59OL9VOR7GBN","1","1","0","0","0","32035","2017-09-13 17:15:31","879"
"AJACXA5FC5BYZ","caus_thomas_as_v1","326O153BMIZ0N9P16T6RJ8CJEW4DEA","4","0","3","1","0","5789","2017-09-13 17:15:31","880"
"ABQ7HW805MTU3","caus_thomas_as_v1","36U2A8VAG1067KC2YB48UOZPGH6KY9","0","3","1","0","1","16951","2017-09-13 17:15:31","881"
"A3OTWE5F9F6NEK
","caus_thomas_as_v1","3UWN2HHPUY6AJ4LWWI4Z4USSTRFNS3","4","2","0","1","1","40481","2017-09-13 17:15:32","882"
"A264W4NFHB56ZM","caus_thomas_as_v1","3JJVG1YBEBY7CTYOHWMIKOI6YIT5BU","0","1","0","0","0","48109","2017-09-13 17:15:32","883"
"A23JA6ICO4BPQ5","caus_thomas_as_v1","3AWETUDC92TF6FWJUULFVFTEU7LIZN","4","3","3","0","1","6497","2017-09-13 17:15:32","884"
"A2M9EE6KTM8F8I
","caus_thomas_as_v1","3AZHRG4CU4L3ER8A5X10LAO3TI603E","6","3","1","0","1","20667","2017-09-13 17:15:33","885"
"A3QJJR5Y3XE92N","caus_thomas_as_v1","3JC6VJ2SABK2TJTWBIMMPDY0G085AZ","6","2","0","1","1","45572","2017-09-13 17:15:34","886"
"A22LLCN5WBKJJI","caus_thomas_as_v1","31IBVUNM9S0EN4PJSPQR7C3QQ4NFVT","4","3","1","0","1","13192","2017-09-13 17:15:34","887"
"A2GBV3YLSRW4SH","caus_thomas_as_v1","3COPXFW7XBDCY6K17O8PHX6DCC3KPF","4","2","0","1","1","50993","2017-09-13 17:15:34","888"
"A10GJ2FOR16B2I","caus_thomas_as_v1","3EQHHY4HQST33A6ZXIEWLZ93EVLG5M","7","1","0","0","0","36467","2017-09-13 17:15:34","889"
"A38ECJNH8AQKV4
","caus_thomas_as_v1","33CUSNVVNND7XDJJCI9B562WS29880","6","2","2","1","1","9952","2017-09-13 17:15:35","890"
"A1IHPAWH0IF4AY","caus_thomas_as_v1","3I2PTA7R3TVXYILG71NEH2WNH8PKQ6","2","0","2","1","0","8220","2017-09-13 17:15:35","891"
"ATR6RB1RULOC0","caus_thomas_as_v1","33PPUNGG386SZEZ2KHFO97U5H34RZ0","8","2","2","1","1","15017","2017-09-13 17:15:36","892"
"A1VVR9MA1P9HWJ","caus_thomas_as_v1","3YDGXNSEOZV6ECWH0FJYOUMRQGD84T","7","1","2","0","0","10390","2017-09-13 17:15:37","893"
"ABQ7HW805MTU3","caus_thomas_as_v1","36U2A8VAG1067KC2YB48UOZPGH6KY9","2","0","2","1","0","5035","2017-09-13 17:15:37","894"
"A1FG2G9TZSDN","caus_thomas_as_v1","3CFVK00FWLMF86KEDSLHQXSB67IL6D","4","3","0","0","1","41318","2017-09-13 17:15:38","895"
"A2COAUZ1TISD2Q","caus_thomas_as_v1","3SNLUL3WO4O0AHAF9AJK636R9T0ULO","8","2","0","1","1","45468","2017-09-13 17:15:38","896"
"A23437BMZ5T1FH","caus_thomas_as_v1","3LEP4MGT3G12G6DHW241I06YBZRDBA","8","2","1","1","1","16474","2017-09-13 17:15:38","897"
"A1NDSEXBYNOUOS","caus_thomas_as_v1","32M8BPYGATNFFY1E42XQA8D8JHRGIW","4","2","0","1","1","36474","2017-09-13 17:15:38","898"
"AGNJKSH5LFKXZ","caus_thomas_as_v1","32EYX73OY0ABDF5SEUGGSFFQFLPRUB","5","1","2","0","0","18411","2017-09-13 17:15:39","899"
"A2M9EE6KTM8F8I
","caus_thomas_as_v1","3AZHRG4CU4L3ER8A5X10LAO3TI603E","6","1","2","0","0","5172","2017-09-13 17:15:39","900"
"A3B96BW9I8IZA2","caus_thomas_as_v1","3QAPZX2QN4EET9CR1XNV20JBN46023","0","1","0","0","0","33961","2017-09-13 17:15:40","901"
"A288TV72SGDQWE","caus_thomas_as_v1","3Y5140Z9DXHLSBUD7LND4HR0K8EIP2","5","0","3","1","0","8692","2017-09-13 17:15:40","902"
"A149LFXS2IDFUG
","caus_thomas_as_v1","3IFS6Q0HJIKI53A5Z2R7ZMWB7SLISI","8","0","0","1","0","24178","2017-09-13 17:15:41","903"
"A22LLCN5WBKJJI","caus_thomas_as_v1","31IBVUNM9S0EN4PJSPQR7C3QQ4NFVT","4","0","2","1","0","6347","2017-09-13 17:15:41","904"
"A3ICC7SGEF40KR","caus_thomas_as_v1","3G5W44VEU7J6LTR245I2NOSLBLGGK7","6","1","1","0","0","13224","2017-09-13 17:15:44","905"
"A3FM4IDHKJ35WI","caus_thomas_as_v1","3U0SRXB7CD6YIPLJHT4UEKNW7PWNRF","7","1","1","0","0","18019","2017-09-13 17:15:44","906"
"A3S7I1TRSRWO73","caus_thomas_as_v1","31QNSG6A5RU3XZE02DH5R661HI387D","8","1","1","0","0","22957","2017-09-13 17:15:45","907"
"A38ECJNH8AQKV4
","caus_thomas_as_v1","33CUSNVVNND7XDJJCI9B562WS29880","6","3","3","0","1","10029","2017-09-13 17:15:46","908"
"ABQ7HW805MTU3","caus_thomas_as_v1","36U2A8VAG1067KC2YB48UOZPGH6KY9","7","1","3","0","0","7936","2017-09-13 17:15:46","909"
"A1LB9JOMFQ1UMG","caus_thomas_as_v1","3DHE4R9OCWCB4DNCFZCYNS6RULUG2L","4","1","0","0","0","35211","2017-09-13 17:15:46","910"
"A3OTWE5F9F6NEK
","caus_thomas_as_v1","3UWN2HHPUY6AJ4LWWI4Z4USSTRFNS3","6","3","1","0","1","13699","2017-09-13 17:15:46","911"
"A1OQIXAU1SEJ4P","caus_thomas_as_v1","378XPAWRUCEE57OBI25GEM25LMEIAM","2","3","1","0","1","19566","2017-09-13 17:15:46","912"
"A2JLS8VHLTWVP8","caus_thomas_as_v1","34S6N1K2ZVKV5V4V9BCLNOH1FLYLHE","5","0","0","1","0","24148","2017-09-13 17:15:47","913"
"A2M9EE6KTM8F8I
","caus_thomas_as_v1","3AZHRG4CU4L3ER8A5X10LAO3TI603E","4","2","3","1","1","7692","2017-09-13 17:15:48","914"
"A22LLCN5WBKJJI","caus_thomas_as_v1","31IBVUNM9S0EN4PJSPQR7C3QQ4NFVT","4","1","3","0","0","5854","2017-09-13 17:15:48","915"
"A2BMBZIKASUXSY","caus_thomas_as_v1","3KYQYYSHYV8MZ02Q079NOK6XIYADOE","7","1","0","0","0","63377","2017-09-13 17:15:49","916"
"A264W4NFHB56ZM","caus_thomas_as_v1","3JJVG1YBEBY7CTYOHWMIKOI6YIT5BU","0","3","1","0","1","15820","2017-09-13 17:15:49","917"
"ATR6RB1RULOC0","caus_thomas_as_v1","33PPUNGG386SZEZ2KHFO97U5H34RZ0","8","3","3","0","1","12137","2017-09-13 17:15:50","918"
"A22LQL0UHAOMC9","caus_thomas_as_v1","3KB8R4ZV1E85SQN8YS59OL9VOR7GBN","1","3","1","0","1","18927","2017-09-13 17:15:51","919"
"A10GJ2FOR16B2I","caus_thomas_as_v1","3EQHHY4HQST33A6ZXIEWLZ93EVLG5M","2","2","1","1","1","15939","2017-09-13 17:15:52","920"
"A1VVR9MA1P9HWJ","caus_thomas_as_v1","3YDGXNSEOZV6ECWH0FJYOUMRQGD84T","7","2","3","1","1","15092","2017-09-13 17:15:53","921"
"A3D3NEQ158WUB0","caus_thomas_as_v1","33CID57104UGBNXWUQNJJUGRWGGL37","6","3","0","0","1","64026","2017-09-13 17:15:53","922"
"A3FM4IDHKJ35WI","caus_thomas_as_v1","3U0SRXB7CD6YIPLJHT4UEKNW7PWNRF","5","0","2","1","0","7848","2017-09-13 17:15:53","923"
"A3OTWE5F9F6NEK
","caus_thomas_as_v1","3UWN2HHPUY6AJ4LWWI4Z4USSTRFNS3","4","0","2","1","0","8628","2017-09-13 17:15:56","924"
"A1FG2G9TZSDN","caus_thomas_as_v1","3CFVK00FWLMF86KEDSLHQXSB67IL6D","4","1","1","0","0","17788","2017-09-13 17:15:56","925"
"AGNJKSH5LFKXZ","caus_thomas_as_v1","32EYX73OY0ABDF5SEUGGSFFQFLPRUB","4","0","3","1","0","16809","2017-09-13 17:15:57","926"
"A1NDSEXBYNOUOS","caus_thomas_as_v1","32M8BPYGATNFFY1E42XQA8D8JHRGIW","7","3","1","0","1","18932","2017-09-13 17:15:58","927"
"A3ICC7SGEF40KR","caus_thomas_as_v1","3G5W44VEU7J6LTR245I2NOSLBLGGK7","6","3","2","0","1","13868","2017-09-13 17:15:59","928"
"A3SDRNVZJ5CDM7","caus_thomas_as_v1","3A7Y0R2P2OPMWVGABUIUAVS3ZMCXJH","7","3","0","0","1","65708","2017-09-13 17:15:59","929"
"A23437BMZ5T1FH","caus_thomas_as_v1","3LEP4MGT3G12G6DHW241I06YBZRDBA","0","3","2","0","1","19717","2017-09-13 17:15:59","930"
"A1D35QE18L3J5Z","caus_thomas_as_v1","3SBEHTYCWN4F1PMEY8JWH8KCODHIYW","4","1","0","0","0","53795","2017-09-13 17:15:59","931"
"A1OQIXAU1SEJ4P","caus_thomas_as_v1","378XPAWRUCEE57OBI25GEM25LMEIAM","1","0","2","1","0","12101","2017-09-13 17:16:00","932"
"A26DH3PBKXQH6N","caus_thomas_as_v1","3IFS6Q0HJIKI53A5Z2R7ZMWB7SLSIS","4","1","0","0","0","19637","2017-09-13 17:16:01","933"
" A2WD7K61WGL37E
","caus_thomas_as_v1","3PB5A5BD0V7IQEKILBTTJJNZ51GG71","2","0","0","1","0","43294","2017-09-13 17:16:01","934"
"A3OTWE5F9F6NEK
","caus_thomas_as_v1","3UWN2HHPUY6AJ4LWWI4Z4USSTRFNS3","6","1","3","0","0","4557","2017-09-13 17:16:02","935"
"A2GBV3YLSRW4SH","caus_thomas_as_v1","3COPXFW7XBDCY6K17O8PHX6DCC3KPF","4","0","1","1","0","27675","2017-09-13 17:16:03","936"
"A3D3NEQ158WUB0","caus_thomas_as_v1","33CID57104UGBNXWUQNJJUGRWGGL37","4","0","1","1","0","9134","2017-09-13 17:16:03","937"
"A3B96BW9I8IZA2","caus_thomas_as_v1","3QAPZX2QN4EET9CR1XNV20JBN46023","0","2","1","1","1","22665","2017-09-13 17:16:03","938"
"A1BAPMRIU7SGSP","caus_thomas_as_v1","3MRNMEIQW57ETFZTNFTVW323NT5DLX","0","1","0","0","0","28914","2017-09-13 17:16:03","939"
"A149LFXS2IDFUG
","caus_thomas_as_v1","3IFS6Q0HJIKI53A5Z2R7ZMWB7SLISI","0","1","1","0","0","22191","2017-09-13 17:16:04","940"
"A33QI63NVR8CUO","caus_thomas_as_v1","37FMASSAYCSJOHT3OG5C9XMB34ZIBH","8","1","0","0","0","16814","2017-09-13 17:16:04","941"
"A2JLS8VHLTWVP8","caus_thomas_as_v1","34S6N1K2ZVKV5V4V9BCLNOH1FLYLHE","6","1","1","0","0","16019","2017-09-13 17:16:04","942"
"A22LQL0UHAOMC9","caus_thomas_as_v1","3KB8R4ZV1E85SQN8YS59OL9VOR7GBN","1","2","2","1","1","12863","2017-09-13 17:16:05","943"
"A10GJ2FOR16B2I","caus_thomas_as_v1","3EQHHY4HQST33A6ZXIEWLZ93EVLG5M","4","0","2","1","0","11454","2017-09-13 17:16:05","944"
"A3QJJR5Y3XE92N","caus_thomas_as_v1","3JC6VJ2SABK2TJTWBIMMPDY0G085AZ","7","1","1","0","0","30217","2017-09-13 17:16:05","945"
"A3FM4IDHKJ35WI","caus_thomas_as_v1","3U0SRXB7CD6YIPLJHT4UEKNW7PWNRF","7","3","3","0","1","11797","2017-09-13 17:16:06","946"
"A3PENQIO0WNLJN","caus_thomas_as_v1","3J88R45B2GZII6J867NE7REF8LIXPH","8","1","0","0","0","38775","2017-09-13 17:16:06","947"
"A264W4NFHB56ZM","caus_thomas_as_v1","3JJVG1YBEBY7CTYOHWMIKOI6YIT5BU","0","0","2","1","0","17047","2017-09-13 17:16:07","948"
"A23437BMZ5T1FH","caus_thomas_as_v1","3LEP4MGT3G12G6DHW241I06YBZRDBA","4","0","3","1","0","7780","2017-09-13 17:16:08","949"
"A1OQIXAU1SEJ4P","caus_thomas_as_v1","378XPAWRUCEE57OBI25GEM25LMEIAM","1","1","3","0","0","7520","2017-09-13 17:16:08","950"
"A3ICC7SGEF40KR","caus_thomas_as_v1","3G5W44VEU7J6LTR245I2NOSLBLGGK7","3","2","3","1","1","8799","2017-09-13 17:16:08","951"
"A3UQ982VZ9PRXO","caus_thomas_as_v1","3K9FOBBF2HKNFRQ6C97YS8EX1X7NLP","5","0","0","1","0","27758","2017-09-13 17:16:09","952"
"A3SDRNVZJ5CDM7","caus_thomas_as_v1","3A7Y0R2P2OPMWVGABUIUAVS3ZMCXJH","6","1","1","0","0","10323","2017-09-13 17:16:10","953"
"A3B96BW9I8IZA2","caus_thomas_as_v1","3QAPZX2QN4EET9CR1XNV20JBN46023","0","0","2","1","0","6455","2017-09-13 17:16:11","954"
"A3S7I1TRSRWO73","caus_thomas_as_v1","31QNSG6A5RU3XZE02DH5R661HI387D","8","0","2","1","0","25785","2017-09-13 17:16:11","955"
"A2BMBZIKASUXSY","caus_thomas_as_v1","3KYQYYSHYV8MZ02Q079NOK6XIYADOE","5","0","1","1","0","21980","2017-09-13 17:16:11","956"
"A2K1ILRTCP7H3T","caus_thomas_as_v1","3EFVCAY5L3AWHUF23M62UWBA8D3J8V","1","1","0","0","0","11373","2017-09-13 17:16:13","957"
"A2E3TO92MCQ9XU","caus_thomas_as_v1","34J10VATJFZ6SNVS7Y224MHAP40IQT","4","0","0","1","0","24762","2017-09-13 17:16:13","958"
"A26DH3PBKXQH6N","caus_thomas_as_v1","3IFS6Q0HJIKI53A5Z2R7ZMWB7SLSIS","5","3","1","0","1","10968","2017-09-13 17:16:13","959"
"A1IHPAWH0IF4AY","caus_thomas_as_v1","3I2PTA7R3TVXYILG71NEH2WNH8PKQ6","2","1","3","0","0","36834","2017-09-13 17:16:13","960"
"A33QI63NVR8CUO","caus_thomas_as_v1","37FMASSAYCSJOHT3OG5C9XMB34ZIBH","4","2","1","1","1","8435","2017-09-13 17:16:14","961"
"A1FG2G9TZSDN","caus_thomas_as_v1","3CFVK00FWLMF86KEDSLHQXSB67IL6D","4","2","2","1","1","16206","2017-09-13 17:16:14","962"
"A1V8MSGK7CVD8B","caus_thomas_as_v1","3MYYFCXHJ38L7R2ZJDVMG73PEZQG4H","5","1","0","0","0","74857","2017-09-13 17:16:14","963"
"A3D3NEQ158WUB0","caus_thomas_as_v1","33CID57104UGBNXWUQNJJUGRWGGL37","6","1","2","0","0","11350","2017-09-13 17:16:15","964"
" A2WD7K61WGL37E
","caus_thomas_as_v1","3PB5A5BD0V7IQEKILBTTJJNZ51GG71","2","1","1","0","0","13935","2017-09-13 17:16:16","965"
"A1LB9JOMFQ1UMG","caus_thomas_as_v1","3DHE4R9OCWCB4DNCFZCYNS6RULUG2L","4","2","1","1","1","29989","2017-09-13 17:16:17","966"
"A2JLS8VHLTWVP8","caus_thomas_as_v1","34S6N1K2ZVKV5V4V9BCLNOH1FLYLHE","7","3","2","0","1","11903","2017-09-13 17:16:17","967"
"AQKC3ZYVAL1OJ","caus_thomas_as_v1","3VBEN272MK049C4A9ER4EAJVSFTSG0","6","0","0","1","0","37630","2017-09-13 17:16:18","968"
"A10GJ2FOR16B2I","caus_thomas_as_v1","3EQHHY4HQST33A6ZXIEWLZ93EVLG5M","8","3","3","0","1","12001","2017-09-13 17:16:18","969"
"A22LQL0UHAOMC9","caus_thomas_as_v1","3KB8R4ZV1E85SQN8YS59OL9VOR7GBN","1","0","3","1","0","12828","2017-09-13 17:16:18","970"
"A1NDSEXBYNOUOS","caus_thomas_as_v1","32M8BPYGATNFFY1E42XQA8D8JHRGIW","4","0","2","1","0","19515","2017-09-13 17:16:19","971"
"A2COAUZ1TISD2Q","caus_thomas_as_v1","3SNLUL3WO4O0AHAF9AJK636R9T0ULO","3","0","1","1","0","40071","2017-09-13 17:16:19","972"
"A2K1ILRTCP7H3T","caus_thomas_as_v1","3EFVCAY5L3AWHUF23M62UWBA8D3J8V","1","3","1","0","1","5519","2017-09-13 17:16:19","973"
"A149LFXS2IDFUG
","caus_thomas_as_v1","3IFS6Q0HJIKI53A5Z2R7ZMWB7SLISI","3","3","2","0","1","15554","2017-09-13 17:16:20","974"
"A3SDRNVZJ5CDM7","caus_thomas_as_v1","3A7Y0R2P2OPMWVGABUIUAVS3ZMCXJH","4","0","2","1","0","9526","2017-09-13 17:16:21","975"
"A3V8C77FN4FLUA","caus_thomas_as_v1","3TGOYF991XN3T7X9IOBLXQ2AMKTUUI","8","3","0","0","1","35193","2017-09-13 17:16:21","976"
"A33QI63NVR8CUO","caus_thomas_as_v1","37FMASSAYCSJOHT3OG5C9XMB34ZIBH","8","0","2","1","0","6314","2017-09-13 17:16:21","977"
"A3VIM82WAK5TIZ","caus_thomas_as_v1","3COPXFW7XBDCY6K17O8PHX6DCC3PKK","4","2","0","1","1","12858","2017-09-13 17:16:21","978"
"A3B96BW9I8IZA2","caus_thomas_as_v1","3QAPZX2QN4EET9CR1XNV20JBN46023","0","3","3","0","1","9975","2017-09-13 17:16:22","979"
"A2K1ILRTCP7H3T","caus_thomas_as_v1","3EFVCAY5L3AWHUF23M62UWBA8D3J8V","1","0","2","1","0","2241","2017-09-13 17:16:22","980"
"A26DH3PBKXQH6N","caus_thomas_as_v1","3IFS6Q0HJIKI53A5Z2R7ZMWB7SLSIS","4","2","2","1","1","9058","2017-09-13 17:16:23","981"
"A3D3NEQ158WUB0","caus_thomas_as_v1","33CID57104UGBNXWUQNJJUGRWGGL37","3","2","3","1","1","6967","2017-09-13 17:16:23","982"
"A1FG2G9TZSDN","caus_thomas_as_v1","3CFVK00FWLMF86KEDSLHQXSB67IL6D","4","0","3","1","0","8981","2017-09-13 17:16:24","983"
"A1BAPMRIU7SGSP","caus_thomas_as_v1","3MRNMEIQW57ETFZTNFTVW323NT5DLX","0","2","1","1","1","19473","2017-09-13 17:16:24","984"
"A3PENQIO0WNLJN","caus_thomas_as_v1","3J88R45B2GZII6J867NE7REF8LIXPH","8","0","1","1","0","17320","2017-09-13 17:16:24","985"
"A3UQ982VZ9PRXO","caus_thomas_as_v1","3K9FOBBF2HKNFRQ6C97YS8EX1X7NLP","3","1","1","0","0","16314","2017-09-13 17:16:26","986"
"A3SXV3VD8DJ0YX","caus_thomas_as_v1","3UOUJI6MTDFVABR4NTM8HX1EG2AUXA","7","2","0","1","1","41817","2017-09-13 17:16:26","987"
"A2BMBZIKASUXSY","caus_thomas_as_v1","3KYQYYSHYV8MZ02Q079NOK6XIYADOE","8","3","2","0","1","15280","2017-09-13 17:16:28","988"
"A26DH3PBKXQH6N","caus_thomas_as_v1","3IFS6Q0HJIKI53A5Z2R7ZMWB7SLSIS","4","0","3","1","0","3960","2017-09-13 17:16:28","989"
"A2E3TO92MCQ9XU","caus_thomas_as_v1","34J10VATJFZ6SNVS7Y224MHAP40IQT","6","3","1","0","1","14662","2017-09-13 17:16:28","990"
"A2JLS8VHLTWVP8","caus_thomas_as_v1","34S6N1K2ZVKV5V4V9BCLNOH1FLYLHE","5","2","3","1","1","10499","2017-09-13 17:16:29","991"
"A3SDRNVZJ5CDM7","caus_thomas_as_v1","3A7Y0R2P2OPMWVGABUIUAVS3ZMCXJH","4","2","3","1","1","7490","2017-09-13 17:16:29","992"
"A3VIM82WAK5TIZ","caus_thomas_as_v1","3COPXFW7XBDCY6K17O8PHX6DCC3PKK","4","0","1","1","0","7117","2017-09-13 17:16:29","993"
"A3QJJR5Y3XE92N","caus_thomas_as_v1","3JC6VJ2SABK2TJTWBIMMPDY0G085AZ","5","0","2","1","0","23520","2017-09-13 17:16:30","994"
"A2K1ILRTCP7H3T","caus_thomas_as_v1","3EFVCAY5L3AWHUF23M62UWBA8D3J8V","2","2","3","1","1","6399","2017-09-13 17:16:30","995"
"A2U6QS11W4G9N0","caus_thomas_as_v1","3IJXV6UZ1XK64OASKDR29CRFLQ2IRU","4","0","0","1","0","61466","2017-09-13 17:16:31","996"
"A3PENQIO0WNLJN","caus_thomas_as_v1","3J88R45B2GZII6J867NE7REF8LIXPH","8","2","2","1","1","5260","2017-09-13 17:16:31","997"
"AZFG59B0MFKYQ","caus_thomas_as_v1","3GNA64GUZE5UGZ0D0EJ8FDD5KIUQ5R","4","0","0","1","0","54171","2017-09-13 17:16:31","998"
"A2C1A6AHLP9ARN","caus_thomas_as_v1","3P59JYT76LLF9I9IZZB5MBLGKF32TH","7","3","0","0","1","5505","2017-09-13 17:16:31","999"
"A1D35QE18L3J5Z","caus_thomas_as_v1","3SBEHTYCWN4F1PMEY8JWH8KCODHIYW","4","3","1","0","1","32030","2017-09-13 17:16:32","1000"
"A33921T4I2XIRS","caus_thomas_as_v1","31HQ4X3T3SBKV4IBK5OKR2O3OWFSL6","7","1","0","0","0","28791","2017-09-13 17:16:32","1001"
"A3S7I1TRSRWO73","caus_thomas_as_v1","31QNSG6A5RU3XZE02DH5R661HI387D","8","2","3","1","1","22206","2017-09-13 17:16:35","1002"
"A1NDSEXBYNOUOS","caus_thomas_as_v1","32M8BPYGATNFFY1E42XQA8D8JHRGIW","7","1","3","0","0","14764","2017-09-13 17:16:35","1003"
"A340UGIDGIF4W6","caus_thomas_as_v1","3NVC2EB65Q00BM4VD5C9D2IN5VKY3C","4","2","0","1","1","7452","2017-09-13 17:16:35","1004"
"A2P2T7K63H0C7F","caus_thomas_as_v1","34HJIJKLP5X4POSU88U8G86Z1EEV4L","0","3","0","0","1","18633","2017-09-13 17:16:35","1005"
"A2C1A6AHLP9ARN","caus_thomas_as_v1","3P59JYT76LLF9I9IZZB5MBLGKF32TH","6","1","1","0","0","3729","2017-09-13 17:16:35","1006"
"A3SXV3VD8DJ0YX","caus_thomas_as_v1","3UOUJI6MTDFVABR4NTM8HX1EG2AUXA","8","3","1","0","1","8129","2017-09-13 17:16:36","1007"
"A3UQ982VZ9PRXO","caus_thomas_as_v1","3K9FOBBF2HKNFRQ6C97YS8EX1X7NLP","3","3","2","0","1","8973","2017-09-13 17:16:36","1008"
"A1NGGAVIGC9O7V","caus_thomas_as_v1","369J354OFDBZME6D21O1D5N3AQWG62","1","3","0","0","1","44208","2017-09-13 17:16:36","1009"
"A2GBV3YLSRW4SH","caus_thomas_as_v1","3COPXFW7XBDCY6K17O8PHX6DCC3KPF","1","1","2","0","0","33909","2017-09-13 17:16:38","1010"
"A3VIM82WAK5TIZ","caus_thomas_as_v1","3COPXFW7XBDCY6K17O8PHX6DCC3PKK","4","1","3","0","0","4677","2017-09-13 17:16:38","1011"
"A1KU4UNGZ733IF","caus_thomas_as_v1","3TOK3KHVJTJ6IR1G9U61OSW1WN7O7W","0","2","0","1","1","37913","2017-09-13 17:16:38","1012"
"A149LFXS2IDFUG
","caus_thomas_as_v1","3IFS6Q0HJIKI53A5Z2R7ZMWB7SLISI","5","2","3","1","1","18466","2017-09-13 17:16:40","1013"
"A2C1A6AHLP9ARN","caus_thomas_as_v1","3P59JYT76LLF9I9IZZB5MBLGKF32TH","6","0","2","1","0","3527","2017-09-13 17:16:40","1014"
"A31UXXZVI3U4E2","caus_thomas_as_v1","3MB8LZR5BFUM7L53FWFI0GXT722LKI","4","3","0","0","1","33328","2017-09-13 17:16:41","1015"
"A340UGIDGIF4W6","caus_thomas_as_v1","3NVC2EB65Q00BM4VD5C9D2IN5VKY3C","3","1","1","0","0","5009","2017-09-13 17:16:41","1016"
" A2WD7K61WGL37E
","caus_thomas_as_v1","3PB5A5BD0V7IQEKILBTTJJNZ51GG71","2","2","2","1","1","23845","2017-09-13 17:16:41","1017"
"A3PENQIO0WNLJN","caus_thomas_as_v1","3J88R45B2GZII6J867NE7REF8LIXPH","8","3","3","0","1","10141","2017-09-13 17:16:42","1018"
"A3FTNTPAOI5C0G","caus_thomas_as_v1","3OCHAWUVGOLH7FMSTFI6BASGEBCXKG","4","0","0","1","0","53213","2017-09-13 17:16:42","1019"
"A1YN3AGDWAB1ZE","caus_thomas_as_v1","3AUQQEL7U5UNQ0ATP77645GMK2YV05","6","3","0","0","1","29741","2017-09-13 17:16:42","1020"
"A3SXV3VD8DJ0YX","caus_thomas_as_v1","3UOUJI6MTDFVABR4NTM8HX1EG2AUXA","1","1","2","0","0","5746","2017-09-13 17:16:42","1021"
"A1BAPMRIU7SGSP","caus_thomas_as_v1","3MRNMEIQW57ETFZTNFTVW323NT5DLX","0","3","2","0","1","17745","2017-09-13 17:16:43","1022"
"A1LB9JOMFQ1UMG","caus_thomas_as_v1","3DHE4R9OCWCB4DNCFZCYNS6RULUG2L","4","0","2","1","0","25454","2017-09-13 17:16:44","1023"
"A340UGIDGIF4W6","caus_thomas_as_v1","3NVC2EB65Q00BM4VD5C9D2IN5VKY3C","3","0","2","1","0","2210","2017-09-13 17:16:44","1024"
"A2C1A6AHLP9ARN","caus_thomas_as_v1","3P59JYT76LLF9I9IZZB5MBLGKF32TH","6","2","3","1","1","3511","2017-09-13 17:16:45","1025"
"A3V8C77FN4FLUA","caus_thomas_as_v1","3TGOYF991XN3T7X9IOBLXQ2AMKTUUI","4","1","1","0","0","23901","2017-09-13 17:16:46","1026"
"A2COAUZ1TISD2Q","caus_thomas_as_v1","3SNLUL3WO4O0AHAF9AJK636R9T0ULO","2","1","2","0","0","25859","2017-09-13 17:16:46","1027"
"A33921T4I2XIRS","caus_thomas_as_v1","31HQ4X3T3SBKV4IBK5OKR2O3OWFSL6","6","2","1","1","1","12899","2017-09-13 17:16:46","1028"
"AQKC3ZYVAL1OJ","caus_thomas_as_v1","3VBEN272MK049C4A9ER4EAJVSFTSG0","6","3","1","0","1","28117","2017-09-13 17:16:47","1029"
"A5T9IFDZ3W4T6","caus_thomas_as_v1","3ZR9AIQJUBAOWNRE5B6JVFG97I204Z","2","2","0","1","1","49783","2017-09-13 17:16:47","1030"
"A340UGIDGIF4W6","caus_thomas_as_v1","3NVC2EB65Q00BM4VD5C9D2IN5VKY3C","5","3","3","0","1","2565","2017-09-13 17:16:48","1031"
"A273EH17NSJRH0
","caus_thomas_as_v1","3LQ8PUHQFLTTFUWPO8F8V8P9YH4IHX","8","2","0","1","1","32953","2017-09-13 17:16:48","1032"
"A264W4NFHB56ZM","caus_thomas_as_v1","3JJVG1YBEBY7CTYOHWMIKOI6YIT5BU","0","2","3","1","1","39743","2017-09-13 17:16:48","1033"
"A3SXV3VD8DJ0YX","caus_thomas_as_v1","3UOUJI6MTDFVABR4NTM8HX1EG2AUXA","0","0","3","1","0","5345","2017-09-13 17:16:49","1034"
"A2BMBZIKASUXSY","caus_thomas_as_v1","3KYQYYSHYV8MZ02Q079NOK6XIYADOE","2","2","3","1","1","20565","2017-09-13 17:16:49","1035"
"A3U84FW0CTBX41","caus_thomas_as_v1","3MAOD8E57QBIFL7VQSAM329K86HNXB","2","1","0","0","0","39039","2017-09-13 17:16:50","1036"
"A224IWPV29ZPY4","caus_thomas_as_v1","3NPI0JQDAO6B1PAO1XMHIOT9VPUPTQ","6","1","0","0","0","34512","2017-09-13 17:16:50","1037"
"A2P2T7K63H0C7F","caus_thomas_as_v1","34HJIJKLP5X4POSU88U8G86Z1EEV4L","0","1","1","0","0","14700","2017-09-13 17:16:51","1038"
"A1D35QE18L3J5Z","caus_thomas_as_v1","3SBEHTYCWN4F1PMEY8JWH8KCODHIYW","4","0","2","1","0","19182","2017-09-13 17:16:52","1039"
"A1YN3AGDWAB1ZE","caus_thomas_as_v1","3AUQQEL7U5UNQ0ATP77645GMK2YV05","6","2","1","1","1","9940","2017-09-13 17:16:53","1040"
"A3UQ982VZ9PRXO","caus_thomas_as_v1","3K9FOBBF2HKNFRQ6C97YS8EX1X7NLP","5","2","3","1","1","16302","2017-09-13 17:16:53","1041"
"A1LB9JOMFQ1UMG","caus_thomas_as_v1","3DHE4R9OCWCB4DNCFZCYNS6RULUG2L","4","3","3","0","1","8766","2017-09-13 17:16:53","1042"
"A2U6QS11W4G9N0","caus_thomas_as_v1","3IJXV6UZ1XK64OASKDR29CRFLQ2IRU","6","2","1","1","1","22154","2017-09-13 17:16:54","1043"
"A1KU4UNGZ733IF","caus_thomas_as_v1","3TOK3KHVJTJ6IR1G9U61OSW1WN7O7W","0","0","1","1","0","14349","2017-09-13 17:16:54","1044"
"AZFG59B0MFKYQ","caus_thomas_as_v1","3GNA64GUZE5UGZ0D0EJ8FDD5KIUQ5R","4","1","1","0","0","22489","2017-09-13 17:16:54","1045"
"A31UXXZVI3U4E2","caus_thomas_as_v1","3MB8LZR5BFUM7L53FWFI0GXT722LKI","3","1","1","0","0","13356","2017-09-13 17:16:55","1046"
" A2WD7K61WGL37E
","caus_thomas_as_v1","3PB5A5BD0V7IQEKILBTTJJNZ51GG71","3","3","3","0","1","13174","2017-09-13 17:16:55","1047"
"A273EH17NSJRH0
","caus_thomas_as_v1","3LQ8PUHQFLTTFUWPO8F8V8P9YH4IHX","8","0","1","1","0","6715","2017-09-13 17:16:56","1048"
"A1BAPMRIU7SGSP","caus_thomas_as_v1","3MRNMEIQW57ETFZTNFTVW323NT5DLX","0","0","3","1","0","11873","2017-09-13 17:16:56","1049"
"A2GBV3YLSRW4SH","caus_thomas_as_v1","3COPXFW7XBDCY6K17O8PHX6DCC3KPF","1","3","3","0","1","17123","2017-09-13 17:16:56","1050"
"ACSFNLK07LJ2P","caus_thomas_as_v1","3WS1NTTKEYDYU3O3PS22MJD0W8B0FN","4","2","0","1","1","33633","2017-09-13 17:16:57","1051"
"A3QJJR5Y3XE92N","caus_thomas_as_v1","3JC6VJ2SABK2TJTWBIMMPDY0G085AZ","7","3","3","0","1","26053","2017-09-13 17:16:57","1052"
"A1V8MSGK7CVD8B","caus_thomas_as_v1","3MYYFCXHJ38L7R2ZJDVMG73PEZQG4H","5","0","1","1","0","41633","2017-09-13 17:16:57","1053"
"A1KU4UNGZ733IF","caus_thomas_as_v1","3TOK3KHVJTJ6IR1G9U61OSW1WN7O7W","0","1","2","0","0","3165","2017-09-13 17:16:58","1054"
"AKUBT35V168H3","caus_thomas_as_v1","3II4UPYCOJ8PKCF6FK1RDP1XXZSQDZ","3","1","0","0","0","51429","2017-09-13 17:16:58","1055"
"A33921T4I2XIRS","caus_thomas_as_v1","31HQ4X3T3SBKV4IBK5OKR2O3OWFSL6","4","3","2","0","1","11507","2017-09-13 17:16:59","1056"
"A1NGGAVIGC9O7V","caus_thomas_as_v1","369J354OFDBZME6D21O1D5N3AQWG62","1","1","1","0","0","21839","2017-09-13 17:16:59","1057"
"A1KU4UNGZ733IF","caus_thomas_as_v1","3TOK3KHVJTJ6IR1G9U61OSW1WN7O7W","0","3","3","0","1","3248","2017-09-13 17:17:02","1058"
"A3J85WP15JFYW0","caus_thomas_as_v1","3X3OR7WPZZ12CK3267IFABO2C28L8Z","5","1","0","0","0","28659","2017-09-13 17:17:02","1059"
"A2P2T7K63H0C7F","caus_thomas_as_v1","34HJIJKLP5X4POSU88U8G86Z1EEV4L","0","0","2","1","0","10368","2017-09-13 17:17:02","1060"
"A2COAUZ1TISD2Q","caus_thomas_as_v1","3SNLUL3WO4O0AHAF9AJK636R9T0ULO","0","3","3","0","1","15653","2017-09-13 17:17:02","1061"
"AQKC3ZYVAL1OJ","caus_thomas_as_v1","3VBEN272MK049C4A9ER4EAJVSFTSG0","5","2","2","1","1","14947","2017-09-13 17:17:03","1062"
"A5T9IFDZ3W4T6","caus_thomas_as_v1","3ZR9AIQJUBAOWNRE5B6JVFG97I204Z","1","0","1","1","0","14545","2017-09-13 17:17:03","1063"
"A273EH17NSJRH0
","caus_thomas_as_v1","3LQ8PUHQFLTTFUWPO8F8V8P9YH4IHX","8","1","2","0","0","7280","2017-09-13 17:17:04","1064"
"A1YN3AGDWAB1ZE","caus_thomas_as_v1","3AUQQEL7U5UNQ0ATP77645GMK2YV05","5","1","2","0","0","10092","2017-09-13 17:17:04","1065"
"A309E9ZYRIL8X2","caus_thomas_as_v1","3FPRZHYEPY8J7S9Q8UPP63ETNEIV30","0","3","0","0","1","35739","2017-09-13 17:17:04","1066"
"A3V8C77FN4FLUA","caus_thomas_as_v1","3TGOYF991XN3T7X9IOBLXQ2AMKTUUI","4","2","2","1","1","18730","2017-09-13 17:17:05","1067"
"A1B11P1RHYOW1X","caus_thomas_as_v1","3AMYWKA6YBNNERNBQK19IEW51CNO6X","8","3","0","0","1","41949","2017-09-13 17:17:08","1068"
"A273EH17NSJRH0
","caus_thomas_as_v1","3LQ8PUHQFLTTFUWPO8F8V8P9YH4IHX","8","3","3","0","1","3299","2017-09-13 17:17:08","1069"
"A224IWPV29ZPY4","caus_thomas_as_v1","3NPI0JQDAO6B1PAO1XMHIOT9VPUPTQ","6","3","1","0","1","17966","2017-09-13 17:17:09","1070"
"A2RRBQ1ZMXIB8Q","caus_thomas_as_v1","3B837J3LDOXVY2DOPPLGDEX2UO4SRW","3","1","0","0","0","42585","2017-09-13 17:17:10","1071"
"A1YGENVE7OI5JL","caus_thomas_as_v1","3X31TUMD7XNK1KJH7M90V11UYW2L1F","1","2","0","1","1","60286","2017-09-13 17:17:10","1072"
"A1NGGAVIGC9O7V","caus_thomas_as_v1","369J354OFDBZME6D21O1D5N3AQWG62","1","0","2","1","0","10261","2017-09-13 17:17:10","1073"
"A3Q4B9ETM3RUS3","caus_thomas_as_v1","33M4IA01QG23UJZNJZR3CMEU936XR9","4","3","0","0","1","82142","2017-09-13 17:17:12","1074"
"A3FTNTPAOI5C0G","caus_thomas_as_v1","3OCHAWUVGOLH7FMSTFI6BASGEBCXKG","4","2","1","1","1","28966","2017-09-13 17:17:12","1075"
"A31UXXZVI3U4E2","caus_thomas_as_v1","3MB8LZR5BFUM7L53FWFI0GXT722LKI","4","2","2","1","1","16407","2017-09-13 17:17:12","1076"
"A3J85WP15JFYW0","caus_thomas_as_v1","3X3OR7WPZZ12CK3267IFABO2C28L8Z","7","3","1","0","1","9482","2017-09-13 17:17:13","1077"
"ACSFNLK07LJ2P","caus_thomas_as_v1","3WS1NTTKEYDYU3O3PS22MJD0W8B0FN","4","1","1","0","0","12994","2017-09-13 17:17:13","1078"
"A2U6QS11W4G9N0","caus_thomas_as_v1","3IJXV6UZ1XK64OASKDR29CRFLQ2IRU","3","3","2","0","1","18122","2017-09-13 17:17:13","1079"
"A1YN3AGDWAB1ZE","caus_thomas_as_v1","3AUQQEL7U5UNQ0ATP77645GMK2YV05","5","0","3","1","0","7996","2017-09-13 17:17:13","1080"
"AQKC3ZYVAL1OJ","caus_thomas_as_v1","3VBEN272MK049C4A9ER4EAJVSFTSG0","5","1","3","0","0","9275","2017-09-13 17:17:13","1081"
"A2P2T7K63H0C7F","caus_thomas_as_v1","34HJIJKLP5X4POSU88U8G86Z1EEV4L","0","2","3","1","1","9803","2017-09-13 17:17:13","1082"
"AZFG59B0MFKYQ","caus_thomas_as_v1","3GNA64GUZE5UGZ0D0EJ8FDD5KIUQ5R","5","2","2","1","1","18125","2017-09-13 17:17:13","1083"
"A5T9IFDZ3W4T6","caus_thomas_as_v1","3ZR9AIQJUBAOWNRE5B6JVFG97I204Z","6","1","2","0","0","9759","2017-09-13 17:17:14","1084"
"A3V8C77FN4FLUA","caus_thomas_as_v1","3TGOYF991XN3T7X9IOBLXQ2AMKTUUI","4","0","3","1","0","7723","2017-09-13 17:17:14","1085"
"A33921T4I2XIRS","caus_thomas_as_v1","31HQ4X3T3SBKV4IBK5OKR2O3OWFSL6","7","0","3","1","0","14647","2017-09-13 17:17:14","1086"
"A3U84FW0CTBX41","caus_thomas_as_v1","3MAOD8E57QBIFL7VQSAM329K86HNXB","2","2","1","1","1","24526","2017-09-13 17:17:15","1087"
"A1V8MSGK7CVD8B","caus_thomas_as_v1","3MYYFCXHJ38L7R2ZJDVMG73PEZQG4H","6","3","2","0","1","18456","2017-09-13 17:17:16","1088"
"A2E3TO92MCQ9XU","caus_thomas_as_v1","34J10VATJFZ6SNVS7Y224MHAP40IQT","4","2","2","1","1","47164","2017-09-13 17:17:17","1089"
"A3J85WP15JFYW0","caus_thomas_as_v1","3X3OR7WPZZ12CK3267IFABO2C28L8Z","4","2","2","1","1","3579","2017-09-13 17:17:17","1090"
"A1D35QE18L3J5Z","caus_thomas_as_v1","3SBEHTYCWN4F1PMEY8JWH8KCODHIYW","4","2","3","1","1","24310","2017-09-13 17:17:17","1091"
"A1NGGAVIGC9O7V","caus_thomas_as_v1","369J354OFDBZME6D21O1D5N3AQWG62","0","2","3","1","1","6809","2017-09-13 17:17:18","1092"
"A1WYW3HZ1ZDAY4","caus_thomas_as_v1","3VA45EW49NOS75MEKEPSNI5OT17O1Z","2","0","0","1","0","42208","2017-09-13 17:17:19","1093"
"ACSFNLK07LJ2P","caus_thomas_as_v1","3WS1NTTKEYDYU3O3PS22MJD0W8B0FN","4","3","2","0","1","10030","2017-09-13 17:17:22","1094"
"A2R0Y8A3SSZ30S","caus_thomas_as_v1","3300DTYQT2IUCIT6BFCBJ7JIXBTQES","6","3","0","0","1","56627","2017-09-13 17:17:22","1095"
"A309E9ZYRIL8X2","caus_thomas_as_v1","3FPRZHYEPY8J7S9Q8UPP63ETNEIV30","0","0","1","1","0","16900","2017-09-13 17:17:22","1096"
"AKUBT35V168H3","caus_thomas_as_v1","3II4UPYCOJ8PKCF6FK1RDP1XXZSQDZ","3","0","1","1","0","23199","2017-09-13 17:17:22","1097"
"A3J85WP15JFYW0","caus_thomas_as_v1","3X3OR7WPZZ12CK3267IFABO2C28L8Z","5","0","3","1","0","4400","2017-09-13 17:17:23","1098"
"A2U6QS11W4G9N0","caus_thomas_as_v1","3IJXV6UZ1XK64OASKDR29CRFLQ2IRU","0","1","3","0","0","10372","2017-09-13 17:17:24","1099"
"A2OZO0I3XX690K","caus_thomas_as_v1","3H8DHMCCW9C399HB2FHUH3POYT0DKU","7","3","0","0","1","39815","2017-09-13 17:17:25","1100"
"A2A27TLFWKDXUW","caus_thomas_as_v1","3FFJ6VRIL1PI4UQTQ08NPGQSC030IE","3","3","0","0","1","55617","2017-09-13 17:17:26","1101"
"A5T9IFDZ3W4T6","caus_thomas_as_v1","3ZR9AIQJUBAOWNRE5B6JVFG97I204Z","6","3","3","0","1","11857","2017-09-13 17:17:27","1102"
"A2E3TO92MCQ9XU","caus_thomas_as_v1","34J10VATJFZ6SNVS7Y224MHAP40IQT","5","1","3","0","0","9211","2017-09-13 17:17:27","1103"
"A224IWPV29ZPY4","caus_thomas_as_v1","3NPI0JQDAO6B1PAO1XMHIOT9VPUPTQ","2","2","2","1","1","16900","2017-09-13 17:17:27","1104"
"AZFG59B0MFKYQ","caus_thomas_as_v1","3GNA64GUZE5UGZ0D0EJ8FDD5KIUQ5R","7","3","3","0","1","13108","2017-09-13 17:17:28","1105"
"A31UXXZVI3U4E2","caus_thomas_as_v1","3MB8LZR5BFUM7L53FWFI0GXT722LKI","3","0","3","1","0","16080","2017-09-13 17:17:30","1106"
"A3FTNTPAOI5C0G","caus_thomas_as_v1","3OCHAWUVGOLH7FMSTFI6BASGEBCXKG","7","3","2","0","1","17795","2017-09-13 17:17:31","1107"
"ACSFNLK07LJ2P","caus_thomas_as_v1","3WS1NTTKEYDYU3O3PS22MJD0W8B0FN","4","0","3","1","0","7668","2017-09-13 17:17:31","1108"
"A309E9ZYRIL8X2","caus_thomas_as_v1","3FPRZHYEPY8J7S9Q8UPP63ETNEIV30","2","1","2","0","0","8583","2017-09-13 17:17:32","1109"
"A2R0Y8A3SSZ30S","caus_thomas_as_v1","3300DTYQT2IUCIT6BFCBJ7JIXBTQES","5","1","1","0","0","9655","2017-09-13 17:17:33","1110"
"AXHB59WY3NYZ4","caus_thomas_as_v1","3H7Z272LX78NIC2JSOKQWXJS1C8PLN","0","1","0","0","0","51507","2017-09-13 17:17:34","1111"
"A2KB01Q8Y5PJIJ
","caus_thomas_as_v1","3CTOC39K37RSHGAJTHEWGWFFXTXJ78","8","1","0","0","0","49157","2017-09-13 17:17:34","1112"
"A3U84FW0CTBX41","caus_thomas_as_v1","3MAOD8E57QBIFL7VQSAM329K86HNXB","1","0","2","1","0","18083","2017-09-13 17:17:34","1113"
"A1WYW3HZ1ZDAY4","caus_thomas_as_v1","3VA45EW49NOS75MEKEPSNI5OT17O1Z","6","3","1","0","1","14169","2017-09-13 17:17:34","1114"
"A1V8MSGK7CVD8B","caus_thomas_as_v1","3MYYFCXHJ38L7R2ZJDVMG73PEZQG4H","4","2","3","1","1","17132","2017-09-13 17:17:35","1115"
"A2RRBQ1ZMXIB8Q","caus_thomas_as_v1","3B837J3LDOXVY2DOPPLGDEX2UO4SRW","0","3","1","0","1","24113","2017-09-13 17:17:35","1116"
"A1B11P1RHYOW1X","caus_thomas_as_v1","3AMYWKA6YBNNERNBQK19IEW51CNO6X","8","1","1","0","0","28592","2017-09-13 17:17:38","1117"
"AKUBT35V168H3","caus_thomas_as_v1","3II4UPYCOJ8PKCF6FK1RDP1XXZSQDZ","4","2","2","1","1","15548","2017-09-13 17:17:39","1118"
"ARAW2BY7JQ2JH","caus_thomas_as_v1","3Q5ZZ9ZEVOGOAV0HEK28TMS5QC858V","1","2","0","1","1","37756","2017-09-13 17:17:39","1119"
"A2A27TLFWKDXUW","caus_thomas_as_v1","3FFJ6VRIL1PI4UQTQ08NPGQSC030IE","1","0","1","1","0","13232","2017-09-13 17:17:40","1120"
"A2R0Y8A3SSZ30S","caus_thomas_as_v1","3300DTYQT2IUCIT6BFCBJ7JIXBTQES","4","0","2","1","0","6722","2017-09-13 17:17:41","1121"
"A2OZO0I3XX690K","caus_thomas_as_v1","3H8DHMCCW9C399HB2FHUH3POYT0DKU","5","2","1","1","1","15601","2017-09-13 17:17:41","1122"
"A277UPR6JWGMWY","caus_thomas_as_v1","3NLZY2D53PQ8IO3YS1ZFW29268ULQA","0","1","0","0","0","40328","2017-09-13 17:17:41","1123"
"A39J8MSTUDVH0D
A39J8MSTUDVH0D
","caus_thomas_as_v1","37ZHEEHM6WNHW28UQWM90PYQ1WC37H","3","2","0","1","1","47981","2017-09-13 17:17:42","1124"
"AXHB59WY3NYZ4","caus_thomas_as_v1","3H7Z272LX78NIC2JSOKQWXJS1C8PLN","0","3","1","0","1","7794","2017-09-13 17:17:42","1125"
"A1ABNEBGVW33F1
A1ABNEBGVW33F1
A1ABNEBGVW33F1
A1ABNEBGVW33F1
A1ABNEBGVW33F1","caus_thomas_as_v1","3ATTHHXXWAPQ1KW4TCXUYUD3M7NIXQ","5","1","0","0","0","36633","2017-09-13 17:17:42","1126"
"A309E9ZYRIL8X2","caus_thomas_as_v1","3FPRZHYEPY8J7S9Q8UPP63ETNEIV30","0","2","3","1","1","10078","2017-09-13 17:17:43","1127"
"A224IWPV29ZPY4","caus_thomas_as_v1","3NPI0JQDAO6B1PAO1XMHIOT9VPUPTQ","2","0","3","1","0","15147","2017-09-13 17:17:43","1128"
"AJITIN95JSBAR","caus_thomas_as_v1","34FNN24DCMA3P1RZRO02SZG7JRBY52","4","3","0","0","1","31040","2017-09-13 17:17:44","1129"
"A3FTNTPAOI5C0G","caus_thomas_as_v1","3OCHAWUVGOLH7FMSTFI6BASGEBCXKG","7","1","3","0","0","12280","2017-09-13 17:17:44","1130"
" A14Z6A1PVJSLNB
","caus_thomas_as_v1","3P1L2B7AD1Q5XCQIDO7B7XE2R7CLO2","8","0","0","1","0","48970","2017-09-13 17:17:45","1131"
"A2RRBQ1ZMXIB8Q","caus_thomas_as_v1","3B837J3LDOXVY2DOPPLGDEX2UO4SRW","1","0","2","1","0","11648","2017-09-13 17:17:48","1132"
"AKUBT35V168H3","caus_thomas_as_v1","3II4UPYCOJ8PKCF6FK1RDP1XXZSQDZ","5","3","3","0","1","8576","2017-09-13 17:17:48","1133"
"A1WYW3HZ1ZDAY4","caus_thomas_as_v1","3VA45EW49NOS75MEKEPSNI5OT17O1Z","6","1","2","0","0","13447","2017-09-13 17:17:49","1134"
"A2R0Y8A3SSZ30S","caus_thomas_as_v1","3300DTYQT2IUCIT6BFCBJ7JIXBTQES","5","2","3","1","1","8103","2017-09-13 17:17:50","1135"
"A2A27TLFWKDXUW","caus_thomas_as_v1","3FFJ6VRIL1PI4UQTQ08NPGQSC030IE","1","1","2","0","0","10036","2017-09-13 17:17:51","1136"
"A3U84FW0CTBX41","caus_thomas_as_v1","3MAOD8E57QBIFL7VQSAM329K86HNXB","5","3","3","0","1","16278","2017-09-13 17:17:52","1137"
"A3HPPDI53JMPW","caus_thomas_as_v1","3OONKJ5DKCKTK346MBIHTUIXFDYOBI","3","0","0","1","0","71473","2017-09-13 17:17:52","1138"
"A2OZO0I3XX690K","caus_thomas_as_v1","3H8DHMCCW9C399HB2FHUH3POYT0DKU","7","1","2","0","0","11779","2017-09-13 17:17:54","1139"
"AXHB59WY3NYZ4","caus_thomas_as_v1","3H7Z272LX78NIC2JSOKQWXJS1C8PLN","0","0","2","1","0","11994","2017-09-13 17:17:55","1140"
"A2RRBQ1ZMXIB8Q","caus_thomas_as_v1","3B837J3LDOXVY2DOPPLGDEX2UO4SRW","1","2","3","1","1","7496","2017-09-13 17:17:56","1141"
"A1YGENVE7OI5JL","caus_thomas_as_v1","3X31TUMD7XNK1KJH7M90V11UYW2L1F","1","0","1","1","0","45225","2017-09-13 17:17:56","1142"
"AJITIN95JSBAR","caus_thomas_as_v1","34FNN24DCMA3P1RZRO02SZG7JRBY52","4","0","1","1","0","11707","2017-09-13 17:17:57","1143"
"A1B11P1RHYOW1X","caus_thomas_as_v1","3AMYWKA6YBNNERNBQK19IEW51CNO6X","8","0","2","1","0","19703","2017-09-13 17:17:58","1144"
"A1WYW3HZ1ZDAY4","caus_thomas_as_v1","3VA45EW49NOS75MEKEPSNI5OT17O1Z","2","2","3","1","1","10604","2017-09-13 17:18:01","1145"
"A2A27TLFWKDXUW","caus_thomas_as_v1","3FFJ6VRIL1PI4UQTQ08NPGQSC030IE","1","2","3","1","1","10089","2017-09-13 17:18:02","1146"
"A277UPR6JWGMWY","caus_thomas_as_v1","3NLZY2D53PQ8IO3YS1ZFW29268ULQA","0","2","1","1","1","20930","2017-09-13 17:18:03","1147"
"A3Q4B9ETM3RUS3","caus_thomas_as_v1","33M4IA01QG23UJZNJZR3CMEU936XR9","0","2","1","1","1","50775","2017-09-13 17:18:03","1148"
"AJITIN95JSBAR","caus_thomas_as_v1","34FNN24DCMA3P1RZRO02SZG7JRBY52","4","1","2","0","0","6941","2017-09-13 17:18:04","1149"
"ARAW2BY7JQ2JH","caus_thomas_as_v1","3Q5ZZ9ZEVOGOAV0HEK28TMS5QC858V","1","0","1","1","0","25300","2017-09-13 17:18:05","1150"
"A13TXQMAQ7GPQR","caus_thomas_as_v1","384PI804XS27Y8TPVC21TIWFLY4S0X","1","3","0","0","1","35215","2017-09-13 17:18:06","1151"
"A2OZO0I3XX690K","caus_thomas_as_v1","3H8DHMCCW9C399HB2FHUH3POYT0DKU","6","0","3","1","0","10987","2017-09-13 17:18:06","1152"
"AXHB59WY3NYZ4","caus_thomas_as_v1","3H7Z272LX78NIC2JSOKQWXJS1C8PLN","0","2","3","1","1","11379","2017-09-13 17:18:08","1153"
"A37R9EMV8GHJGV","caus_thomas_as_v1","336KAV9KYQTBQ48C95Y4USDVZHKY21","0","0","0","1","0","24190","2017-09-13 17:18:08","1154"
"A18WSAKX5YN2FB","caus_thomas_as_v1","33IZTU6J812FVYZ0YOR82WJQV5PSXS","4","0","0","1","0","49494","2017-09-13 17:18:08","1155"
"A1YTB9G04PC71S","caus_thomas_as_v1","3A9AA95ATWN9GNZY014JF8NVFM95PG","3","0","0","1","0","39692","2017-09-13 17:18:09","1156"
"AJITIN95JSBAR","caus_thomas_as_v1","34FNN24DCMA3P1RZRO02SZG7JRBY52","4","2","3","1","1","3757","2017-09-13 17:18:09","1157"
" A14Z6A1PVJSLNB
","caus_thomas_as_v1","3P1L2B7AD1Q5XCQIDO7B7XE2R7CLO2","8","1","1","0","0","24213","2017-09-13 17:18:10","1158"
"A3Q4B9ETM3RUS3","caus_thomas_as_v1","33M4IA01QG23UJZNJZR3CMEU936XR9","0","1","2","0","0","5711","2017-09-13 17:18:10","1159"
"A1ABNEBGVW33F1
A1ABNEBGVW33F1
A1ABNEBGVW33F1
A1ABNEBGVW33F1
A1ABNEBGVW33F1","caus_thomas_as_v1","3ATTHHXXWAPQ1KW4TCXUYUD3M7NIXQ","6","2","1","1","1","28116","2017-09-13 17:18:12","1160"
"A16SR2HQIWRFD6","caus_thomas_as_v1","33L7PJKHCGZQVXB7FGK6W2YJ6FUT8A","5","1","0","0","0","40968","2017-09-13 17:18:13","1161"
"A39J8MSTUDVH0D
A39J8MSTUDVH0D
","caus_thomas_as_v1","37ZHEEHM6WNHW28UQWM90PYQ1WC37H","2","3","1","0","1","30275","2017-09-13 17:18:13","1162"
"A13TXQMAQ7GPQR","caus_thomas_as_v1","384PI804XS27Y8TPVC21TIWFLY4S0X","1","0","1","1","0","8853","2017-09-13 17:18:16","1163"
"A3Q4B9ETM3RUS3","caus_thomas_as_v1","33M4IA01QG23UJZNJZR3CMEU936XR9","0","0","3","1","0","5717","2017-09-13 17:18:17","1164"
"ARAW2BY7JQ2JH","caus_thomas_as_v1","3Q5ZZ9ZEVOGOAV0HEK28TMS5QC858V","7","1","2","0","0","11113","2017-09-13 17:18:17","1165"
"A1YTB9G04PC71S","caus_thomas_as_v1","3A9AA95ATWN9GNZY014JF8NVFM95PG","0","3","1","0","1","9365","2017-09-13 17:18:19","1166"
"A1B11P1RHYOW1X","caus_thomas_as_v1","3AMYWKA6YBNNERNBQK19IEW51CNO6X","8","2","3","1","1","21401","2017-09-13 17:18:21","1167"
"A277UPR6JWGMWY","caus_thomas_as_v1","3NLZY2D53PQ8IO3YS1ZFW29268ULQA","0","0","2","1","0","16414","2017-09-13 17:18:21","1168"
"A3HPPDI53JMPW","caus_thomas_as_v1","3OONKJ5DKCKTK346MBIHTUIXFDYOBI","5","1","1","0","0","28666","2017-09-13 17:18:21","1169"
"A2KBZ75HMJ7KVX","caus_thomas_as_v1","3N8OEVH1FRRD3XTFQGN3ZEIWMCHOOM","7","3","0","0","1","37452","2017-09-13 17:18:23","1170"
"A37R9EMV8GHJGV","caus_thomas_as_v1","336KAV9KYQTBQ48C95Y4USDVZHKY21","0","2","1","1","1","13802","2017-09-13 17:18:23","1171"
"A2CNXQG6YYHTDF","caus_thomas_as_v1","3GA6AFUKOOPEPRE6358LR2NKFZ83HJ","7","3","0","0","1","54564","2017-09-13 17:18:25","1172"
"ARAW2BY7JQ2JH","caus_thomas_as_v1","3Q5ZZ9ZEVOGOAV0HEK28TMS5QC858V","7","3","3","0","1","6868","2017-09-13 17:18:25","1173"
"A1YTB9G04PC71S","caus_thomas_as_v1","3A9AA95ATWN9GNZY014JF8NVFM95PG","4","2","2","1","1","5393","2017-09-13 17:18:25","1174"
"A13TXQMAQ7GPQR","caus_thomas_as_v1","384PI804XS27Y8TPVC21TIWFLY4S0X","1","1","2","0","0","8573","2017-09-13 17:18:25","1175"
" AP8OG80OLCCMC","caus_thomas_as_v1","3QUO65DNQUP8G2DCM2ZCYKAL4Y5OUZ","4","3","0","0","1","18656","2017-09-13 17:18:28","1176"
"A39J8MSTUDVH0D
A39J8MSTUDVH0D
","caus_thomas_as_v1","37ZHEEHM6WNHW28UQWM90PYQ1WC37H","2","1","2","0","0","15561","2017-09-13 17:18:30","1177"
"A18WSAKX5YN2FB","caus_thomas_as_v1","33IZTU6J812FVYZ0YOR82WJQV5PSXS","4","2","1","1","1","21057","2017-09-13 17:18:30","1178"
"A13TXQMAQ7GPQR","caus_thomas_as_v1","384PI804XS27Y8TPVC21TIWFLY4S0X","1","2","3","1","1","4988","2017-09-13 17:18:31","1179"
"A37R9EMV8GHJGV","caus_thomas_as_v1","336KAV9KYQTBQ48C95Y4USDVZHKY21","2","3","2","0","1","8044","2017-09-13 17:18:32","1180"
"A1DIW2K1J89CMO","caus_thomas_as_v1","39OWYR0EPKSVRYKOX0DBEB7K8LPFY2","0","2","0","1","1","41953","2017-09-13 17:18:32","1181"
"A1YTB9G04PC71S","caus_thomas_as_v1","3A9AA95ATWN9GNZY014JF8NVFM95PG","1","1","3","0","0","6383","2017-09-13 17:18:33","1182"
"A16SR2HQIWRFD6","caus_thomas_as_v1","33L7PJKHCGZQVXB7FGK6W2YJ6FUT8A","6","2","1","1","1","21244","2017-09-13 17:18:35","1183"
"A1ABNEBGVW33F1
A1ABNEBGVW33F1
A1ABNEBGVW33F1
A1ABNEBGVW33F1
A1ABNEBGVW33F1","caus_thomas_as_v1","3ATTHHXXWAPQ1KW4TCXUYUD3M7NIXQ","5","0","2","1","0","22597","2017-09-13 17:18:35","1184"
"A2KBZ75HMJ7KVX","caus_thomas_as_v1","3N8OEVH1FRRD3XTFQGN3ZEIWMCHOOM","4","2","1","1","1","11421","2017-09-13 17:18:35","1185"
"A277UPR6JWGMWY","caus_thomas_as_v1","3NLZY2D53PQ8IO3YS1ZFW29268ULQA","2","3","3","0","1","14278","2017-09-13 17:18:36","1186"
"A35T0SNF90U1W5
","caus_thomas_as_v1","3G0WWMR1UVLY6O6J4EFU9UDRB3UQNH","7","3","0","0","1","48379","2017-09-13 17:18:38","1187"
"A37R9EMV8GHJGV","caus_thomas_as_v1","336KAV9KYQTBQ48C95Y4USDVZHKY21","2","1","3","0","0","6044","2017-09-13 17:18:39","1188"
" AP8OG80OLCCMC","caus_thomas_as_v1","3QUO65DNQUP8G2DCM2ZCYKAL4Y5OUZ","5","2","1","1","1","10413","2017-09-13 17:18:40","1189"
"A3IPMCB9WI5B3M","caus_thomas_as_v1","3W92K5RLWUIML7WUMDDIL0CD1AA5V1","0","1","0","0","0","22991","2017-09-13 17:18:40","1190"
"A3HPPDI53JMPW","caus_thomas_as_v1","3OONKJ5DKCKTK346MBIHTUIXFDYOBI","7","3","2","0","1","18640","2017-09-13 17:18:41","1191"
" A14Z6A1PVJSLNB
","caus_thomas_as_v1","3P1L2B7AD1Q5XCQIDO7B7XE2R7CLO2","8","3","2","0","1","30263","2017-09-13 17:18:41","1192"
"A18WSAKX5YN2FB","caus_thomas_as_v1","33IZTU6J812FVYZ0YOR82WJQV5PSXS","4","3","2","0","1","11227","2017-09-13 17:18:42","1193"
" A1W36Q5THCHYUZ","caus_thomas_as_v1","37TRT2X24QSFJSD96YQCLY1BGJOJBU","6","1","0","0","0","47082","2017-09-13 17:18:45","1194"
"A1ABNEBGVW33F1
A1ABNEBGVW33F1
A1ABNEBGVW33F1
A1ABNEBGVW33F1
A1ABNEBGVW33F1","caus_thomas_as_v1","3ATTHHXXWAPQ1KW4TCXUYUD3M7NIXQ","7","3","3","0","1","11388","2017-09-13 17:18:48","1195"
"A33QI63NVR8CUO","caus_thomas_as_v1","37FMASSAYCSJOHT3OG5C9XMB34ZIBH","4","3","3","0","1","145902","2017-09-13 17:18:48","1196"
"A2KBZ75HMJ7KVX","caus_thomas_as_v1","3N8OEVH1FRRD3XTFQGN3ZEIWMCHOOM","5","1","2","0","0","11860","2017-09-13 17:18:48","1197"
"A1I8DXIL52SU0","caus_thomas_as_v1","345LHZDEDXTJUDKQ34FKAHCA97A3UK","1","2","0","1","1","32375","2017-09-13 17:18:48","1198"
"A16SR2HQIWRFD6","caus_thomas_as_v1","33L7PJKHCGZQVXB7FGK6W2YJ6FUT8A","5","0","2","1","0","13605","2017-09-13 17:18:49","1199"
"A2DZVZSDEM81D1","caus_thomas_as_v1","3WQQ9FUS6AVQZBHQFUTLW8SX08VB83","4","0","0","1","0","25373","2017-09-13 17:18:51","1200"
"A18WSAKX5YN2FB","caus_thomas_as_v1","33IZTU6J812FVYZ0YOR82WJQV5PSXS","4","1","3","0","0","8764","2017-09-13 17:18:52","1201"
" AP8OG80OLCCMC","caus_thomas_as_v1","3QUO65DNQUP8G2DCM2ZCYKAL4Y5OUZ","4","0","2","1","0","11930","2017-09-13 17:18:53","1202"
"A2KBZ75HMJ7KVX","caus_thomas_as_v1","3N8OEVH1FRRD3XTFQGN3ZEIWMCHOOM","5","0","3","1","0","3865","2017-09-13 17:18:53","1203"
"A39J8MSTUDVH0D
A39J8MSTUDVH0D
","caus_thomas_as_v1","37ZHEEHM6WNHW28UQWM90PYQ1WC37H","2","0","3","1","0","22116","2017-09-13 17:18:53","1204"
"A2ZI75AZE6TGC8","caus_thomas_as_v1","3570Y55XZPK15YGJ8KJTWW7W90PYGK","6","0","0","1","0","40071","2017-09-13 17:18:55","1205"
"A1JSHSEFOVJKEB
","caus_thomas_as_v1","3DYGAII7PL9Y99IWKTSMDJIMBIVQPD","7","2","0","1","1","74856","2017-09-13 17:18:58","1206"
"A2CNXQG6YYHTDF","caus_thomas_as_v1","3GA6AFUKOOPEPRE6358LR2NKFZ83HJ","8","2","1","1","1","33474","2017-09-13 17:18:59","1207"
"A3IPMCB9WI5B3M","caus_thomas_as_v1","3W92K5RLWUIML7WUMDDIL0CD1AA5V1","0","2","1","1","1","17892","2017-09-13 17:18:59","1208"
"A1YGENVE7OI5JL","caus_thomas_as_v1","3X31TUMD7XNK1KJH7M90V11UYW2L1F","5","3","2","0","1","63115","2017-09-13 17:19:00","1209"
"A1UX9EWSK062A9","caus_thomas_as_v1","32XVDSJFPZYBWNJYQ2AT0XQOQ76M2Z","0","1","0","0","0","58853","2017-09-13 17:19:01","1210"
"A16SR2HQIWRFD6","caus_thomas_as_v1","33L7PJKHCGZQVXB7FGK6W2YJ6FUT8A","6","3","3","0","1","10291","2017-09-13 17:19:01","1211"
"A2TKGUJXGAL13U","caus_thomas_as_v1","3WZ36BJEV3H9XV9EIS4GN4OKELFTB9","4","1","0","0","0","67558","2017-09-13 17:19:01","1212"
" A1W36Q5THCHYUZ","caus_thomas_as_v1","37TRT2X24QSFJSD96YQCLY1BGJOJBU","7","0","1","1","0","15484","2017-09-13 17:19:02","1213"
"A2DZVZSDEM81D1","caus_thomas_as_v1","3WQQ9FUS6AVQZBHQFUTLW8SX08VB83","5","3","1","0","1","9684","2017-09-13 17:19:02","1214"
"A3HPPDI53JMPW","caus_thomas_as_v1","3OONKJ5DKCKTK346MBIHTUIXFDYOBI","4","2","3","1","1","19728","2017-09-13 17:19:02","1215"
" AP8OG80OLCCMC","caus_thomas_as_v1","3QUO65DNQUP8G2DCM2ZCYKAL4Y5OUZ","4","1","3","0","0","8235","2017-09-13 17:19:02","1216"
" A14Z6A1PVJSLNB
","caus_thomas_as_v1","3P1L2B7AD1Q5XCQIDO7B7XE2R7CLO2","8","2","3","1","1","21826","2017-09-13 17:19:04","1217"
"A3VURMEKHPIATF","caus_thomas_as_v1","3IXEICO792K3RJSJM1N8CO2S0K4T6O","5","0","0","1","0","3706","2017-09-13 17:19:06","1218"
"AIM3PIK90V9HX","caus_thomas_as_v1","35DR22AR5DLBBHEL89Q7UOBE3PR3XC","0","0","0","1","0","28662","2017-09-13 17:19:06","1219"
"A1JSHSEFOVJKEB
","caus_thomas_as_v1","3DYGAII7PL9Y99IWKTSMDJIMBIVQPD","6","0","1","1","0","7669","2017-09-13 17:19:07","1220"
"A2PDDOU75JXTN7","caus_thomas_as_v1","3GDTJDAPVUCMI2LN6JJUAO3RC7Z8MP","8","1","0","0","0","30259","2017-09-13 17:19:07","1221"
"A1UX9EWSK062A9","caus_thomas_as_v1","32XVDSJFPZYBWNJYQ2AT0XQOQ76M2Z","8","0","1","1","0","6740","2017-09-13 17:19:08","1222"
"A3IPMCB9WI5B3M","caus_thomas_as_v1","3W92K5RLWUIML7WUMDDIL0CD1AA5V1","0","0","2","1","0","9025","2017-09-13 17:19:09","1223"
"A2DZVZSDEM81D1","caus_thomas_as_v1","3WQQ9FUS6AVQZBHQFUTLW8SX08VB83","5","1","2","0","0","6592","2017-09-13 17:19:10","1224"
"A3VURMEKHPIATF","caus_thomas_as_v1","3IXEICO792K3RJSJM1N8CO2S0K4T6O","6","2","1","1","1","2924","2017-09-13 17:19:10","1225"
"A35T0SNF90U1W5
","caus_thomas_as_v1","3G0WWMR1UVLY6O6J4EFU9UDRB3UQNH","6","1","1","0","0","31465","2017-09-13 17:19:10","1226"
" A1W36Q5THCHYUZ","caus_thomas_as_v1","37TRT2X24QSFJSD96YQCLY1BGJOJBU","3","3","2","0","1","8368","2017-09-13 17:19:11","1227"
"AM155T4U3RE1A","caus_thomas_as_v1","3KJYX6QCM9CUS6BFBFHCMAVIJB4VJC","2","0","0","1","0","50638","2017-09-13 17:19:11","1228"
"AIM3PIK90V9HX","caus_thomas_as_v1","35DR22AR5DLBBHEL89Q7UOBE3PR3XC","0","1","1","0","0","8135","2017-09-13 17:19:15","1229"
"ACFIQHFJO0TDQ","caus_thomas_as_v1","3EWIJTFFVO86OPO7UHIW41S0K7W0E5","2","2","0","1","1","43209","2017-09-13 17:19:15","1230"
"A3VURMEKHPIATF","caus_thomas_as_v1","3IXEICO792K3RJSJM1N8CO2S0K4T6O","4","3","2","0","1","4835","2017-09-13 17:19:15","1231"
"A2NISO63F81FOK
A2NA2NISO63F81FOK
ISO63F81FOK
","caus_thomas_as_v1","3G5F9DBFOPYY10GPNFERAXF36J0VH7","0","0","0","1","0","50117","2017-09-13 17:19:17","1232"
"A2DZVZSDEM81D1","caus_thomas_as_v1","3WQQ9FUS6AVQZBHQFUTLW8SX08VB83","4","2","3","1","1","6566","2017-09-13 17:19:17","1233"
"A2TKGUJXGAL13U","caus_thomas_as_v1","3WZ36BJEV3H9XV9EIS4GN4OKELFTB9","4","0","1","1","0","14873","2017-09-13 17:19:17","1234"
"AIM3PIK90V9HX","caus_thomas_as_v1","35DR22AR5DLBBHEL89Q7UOBE3PR3XC","0","2","2","1","1","2362","2017-09-13 17:19:18","1235"
"A3IPMCB9WI5B3M","caus_thomas_as_v1","3W92K5RLWUIML7WUMDDIL0CD1AA5V1","0","3","3","0","1","7781","2017-09-13 17:19:18","1236"
"A1JSHSEFOVJKEB
","caus_thomas_as_v1","3DYGAII7PL9Y99IWKTSMDJIMBIVQPD","6","1","2","0","0","11224","2017-09-13 17:19:19","1237"
"A2ZI75AZE6TGC8","caus_thomas_as_v1","3570Y55XZPK15YGJ8KJTWW7W90PYGK","6","3","1","0","1","22831","2017-09-13 17:19:19","1238"
"A1UX9EWSK062A9","caus_thomas_as_v1","32XVDSJFPZYBWNJYQ2AT0XQOQ76M2Z","0","2","2","1","1","10011","2017-09-13 17:19:19","1239"
"A1I8DXIL52SU0","caus_thomas_as_v1","345LHZDEDXTJUDKQ34FKAHCA97A3UK","2","3","1","0","1","30056","2017-09-13 17:19:19","1240"
"A3VURMEKHPIATF","caus_thomas_as_v1","3IXEICO792K3RJSJM1N8CO2S0K4T6O","6","1","3","0","0","4232","2017-09-13 17:19:21","1241"
"AIM3PIK90V9HX","caus_thomas_as_v1","35DR22AR5DLBBHEL89Q7UOBE3PR3XC","-1","3","3","0","1","1752","2017-09-13 17:19:21","1242"
" A1W36Q5THCHYUZ","caus_thomas_as_v1","37TRT2X24QSFJSD96YQCLY1BGJOJBU","8","2","3","1","1","8862","2017-09-13 17:19:21","1243"
"A2PDDOU75JXTN7","caus_thomas_as_v1","3GDTJDAPVUCMI2LN6JJUAO3RC7Z8MP","8","2","1","1","1","13818","2017-09-13 17:19:22","1244"
"A1JSHSEFOVJKEB
","caus_thomas_as_v1","3DYGAII7PL9Y99IWKTSMDJIMBIVQPD","4","3","3","0","1","2334","2017-09-13 17:19:22","1245"
"A1UX9EWSK062A9","caus_thomas_as_v1","32XVDSJFPZYBWNJYQ2AT0XQOQ76M2Z","0","3","3","0","1","2512","2017-09-13 17:19:23","1246"
"A4ACN0KN920QQ","caus_thomas_as_v1","3P529IW9KYMBRZDPELOLK35OZ6LLFG","8","3","0","0","1","55153","2017-09-13 17:19:24","1247"
"A2CNXQG6YYHTDF","caus_thomas_as_v1","3GA6AFUKOOPEPRE6358LR2NKFZ83HJ","1","0","2","1","0","28882","2017-09-13 17:19:29","1248"
"AM155T4U3RE1A","caus_thomas_as_v1","3KJYX6QCM9CUS6BFBFHCMAVIJB4VJC","7","3","1","0","1","17320","2017-09-13 17:19:30","1249"
"A2TKGUJXGAL13U","caus_thomas_as_v1","3WZ36BJEV3H9XV9EIS4GN4OKELFTB9","4","2","2","1","1","11648","2017-09-13 17:19:30","1250"
"A1I8DXIL52SU0","caus_thomas_as_v1","345LHZDEDXTJUDKQ34FKAHCA97A3UK","2","1","2","0","0","11456","2017-09-13 17:19:32","1251"
"A1YGENVE7OI5JL","caus_thomas_as_v1","3X31TUMD7XNK1KJH7M90V11UYW2L1F","3","1","3","0","0","34234","2017-09-13 17:19:36","1252"
"A26NGLGGFTATVN","caus_thomas_as_v1","3B837J3LDOXVY2DOPPLGDEX2UO4RSV","0","3","0","0","1","38165","2017-09-13 17:19:39","1253"
"A2NISO63F81FOK
A2NA2NISO63F81FOK
ISO63F81FOK
","caus_thomas_as_v1","3G5F9DBFOPYY10GPNFERAXF36J0VH7","0","1","1","0","0","21236","2017-09-13 17:19:39","1254"
"A2PDDOU75JXTN7","caus_thomas_as_v1","3GDTJDAPVUCMI2LN6JJUAO3RC7Z8MP","8","3","2","0","1","17363","2017-09-13 17:19:40","1255"
"A2TKGUJXGAL13U","caus_thomas_as_v1","3WZ36BJEV3H9XV9EIS4GN4OKELFTB9","4","3","3","0","1","9771","2017-09-13 17:19:41","1256"
"AM155T4U3RE1A","caus_thomas_as_v1","3KJYX6QCM9CUS6BFBFHCMAVIJB4VJC","1","2","2","1","1","9943","2017-09-13 17:19:41","1257"
"A2ZI75AZE6TGC8","caus_thomas_as_v1","3570Y55XZPK15YGJ8KJTWW7W90PYGK","5","2","2","1","1","21091","2017-09-13 17:19:41","1258"
"ACFIQHFJO0TDQ","caus_thomas_as_v1","3EWIJTFFVO86OPO7UHIW41S0K7W0E5","3","1","1","0","0","25436","2017-09-13 17:19:42","1259"
"A2PDDOU75JXTN7","caus_thomas_as_v1","3GDTJDAPVUCMI2LN6JJUAO3RC7Z8MP","8","0","3","1","0","3599","2017-09-13 17:19:45","1260"
"A1I8DXIL52SU0","caus_thomas_as_v1","345LHZDEDXTJUDKQ34FKAHCA97A3UK","1","0","3","1","0","14168","2017-09-13 17:19:47","1261"
"A2KB01Q8Y5PJIJ
","caus_thomas_as_v1","3CTOC39K37RSHGAJTHEWGWFFXTXJ78","7","3","1","0","1","134156","2017-09-13 17:19:49","1262"
"A2CNXQG6YYHTDF","caus_thomas_as_v1","3GA6AFUKOOPEPRE6358LR2NKFZ83HJ","1","1","3","0","0","20149","2017-09-13 17:19:50","1263"
"AM155T4U3RE1A","caus_thomas_as_v1","3KJYX6QCM9CUS6BFBFHCMAVIJB4VJC","7","1","3","0","0","9058","2017-09-13 17:19:51","1264"
"A3TZZCH2OD5509","caus_thomas_as_v1","3RXPCZQMQPC4FS5GWVCKI9WM2FH1GQ","2","1","0","0","0","42481","2017-09-13 17:19:51","1265"
"A26NGLGGFTATVN","caus_thomas_as_v1","3B837J3LDOXVY2DOPPLGDEX2UO4RSV","0","1","1","0","0","11647","2017-09-13 17:19:51","1266"
"A2NISO63F81FOK
A2NA2NISO63F81FOK
ISO63F81FOK
","caus_thomas_as_v1","3G5F9DBFOPYY10GPNFERAXF36J0VH7","0","3","2","0","1","13760","2017-09-13 17:19:54","1267"
"A2ZI75AZE6TGC8","caus_thomas_as_v1","3570Y55XZPK15YGJ8KJTWW7W90PYGK","6","1","3","0","0","13648","2017-09-13 17:19:56","1268"
"A4ACN0KN920QQ","caus_thomas_as_v1","3P529IW9KYMBRZDPELOLK35OZ6LLFG","8","2","1","1","1","33413","2017-09-13 17:19:58","1269"
"A26NGLGGFTATVN","caus_thomas_as_v1","3B837J3LDOXVY2DOPPLGDEX2UO4RSV","0","2","2","1","1","9996","2017-09-13 17:20:02","1270"
"A35T0SNF90U1W5
","caus_thomas_as_v1","3G0WWMR1UVLY6O6J4EFU9UDRB3UQNH","5","2","2","1","1","53165","2017-09-13 17:20:04","1271"
"ACFIQHFJO0TDQ","caus_thomas_as_v1","3EWIJTFFVO86OPO7UHIW41S0K7W0E5","3","3","2","0","1","21593","2017-09-13 17:20:05","1272"
"A2NISO63F81FOK
A2NA2NISO63F81FOK
ISO63F81FOK
","caus_thomas_as_v1","3G5F9DBFOPYY10GPNFERAXF36J0VH7","0","2","3","1","1","10199","2017-09-13 17:20:05","1273"
"A2XU1TSQD45EB4","caus_thomas_as_v1","3B2X28YI3WG3VXY2MFWNCUW6UD5B6H","6","0","0","1","0","28186","2017-09-13 17:20:06","1274"
"A369VZD291G1GL","caus_thomas_as_v1","3483FV8BEEK97KY63M3CB1T207S62A","6","0","0","1","0","57897","2017-09-13 17:20:07","1275"
"AVCP33K35MFW5","caus_thomas_as_v1","3NG53N1RLVKS35I0YZBMRSXMHCA8PL","4","2","0","1","1","36537","2017-09-13 17:20:07","1276"
"A26NGLGGFTATVN","caus_thomas_as_v1","3B837J3LDOXVY2DOPPLGDEX2UO4RSV","0","0","3","1","0","8040","2017-09-13 17:20:11","1277"
"A1KBDB4QJKCOF9","caus_thomas_as_v1","3G2UL9A02DFGTLVC9YK77SAABNE67Q","2","1","0","0","0","40921","2017-09-13 17:20:12","1278"
"A3FMNDB96SUKOY","caus_thomas_as_v1","33L7PJKHCGZQVXB7FGK6W2YJ6FV8TQ","4","2","0","1","1","35196","2017-09-13 17:20:12","1279"
"A2KB01Q8Y5PJIJ
","caus_thomas_as_v1","3CTOC39K37RSHGAJTHEWGWFFXTXJ78","6","0","2","1","0","23543","2017-09-13 17:20:13","1280"
"A369VZD291G1GL","caus_thomas_as_v1","3483FV8BEEK97KY63M3CB1T207S62A","6","1","1","0","0","11274","2017-09-13 17:20:19","1281"
"ACFIQHFJO0TDQ","caus_thomas_as_v1","3EWIJTFFVO86OPO7UHIW41S0K7W0E5","1","0","3","1","0","14371","2017-09-13 17:20:19","1282"
"A4ACN0KN920QQ","caus_thomas_as_v1","3P529IW9KYMBRZDPELOLK35OZ6LLFG","8","0","2","1","0","20301","2017-09-13 17:20:20","1283"
"A2Y7C4MW55HGVF
","caus_thomas_as_v1","3IJXV6UZ1XK64OASKDR29CRFLQ2RI3","3","2","0","1","1","31174","2017-09-13 17:20:20","1284"
"A3FMNDB96SUKOY","caus_thomas_as_v1","33L7PJKHCGZQVXB7FGK6W2YJ6FV8TQ","4","3","1","0","1","7324","2017-09-13 17:20:21","1285"
"A3SJUKMWZLY8V3","caus_thomas_as_v1","3L4PIM1GQTHSUOPXOVD5V0L3B90YRG","2","2","0","1","1","61941","2017-09-13 17:20:21","1286"
"A35T0SNF90U1W5
","caus_thomas_as_v1","3G0WWMR1UVLY6O6J4EFU9UDRB3UQNH","5","0","3","1","0","16867","2017-09-13 17:20:22","1287"
"A31BO9NWS3PW78","caus_thomas_as_v1","30BUDKLTXDW5JWA8RNO8LWOR1F7E54","2","0","0","1","0","11800","2017-09-13 17:20:23","1288"
"A2XU1TSQD45EB4","caus_thomas_as_v1","3B2X28YI3WG3VXY2MFWNCUW6UD5B6H","7","1","1","0","0","16014","2017-09-13 17:20:23","1289"
"A31BO9NWS3PW78","caus_thomas_as_v1","30BUDKLTXDW5JWA8RNO8LWOR1F7E54","3","2","1","1","1","3042","2017-09-13 17:20:27","1290"
"AEQ6KLNVTRKKR","caus_thomas_as_v1","37Q970SNZE975XE7RV617NFPQQAS10","1","2","0","1","1","79318","2017-09-13 17:20:29","1291"
"A31BO9NWS3PW78","caus_thomas_as_v1","30BUDKLTXDW5JWA8RNO8LWOR1F7E54","4","3","2","0","1","2160","2017-09-13 17:20:30","1292"
"A31BO9NWS3PW78","caus_thomas_as_v1","30BUDKLTXDW5JWA8RNO8LWOR1F7E54","4","1","3","0","0","2603","2017-09-13 17:20:34","1293"
"A1KBDB4QJKCOF9","caus_thomas_as_v1","3G2UL9A02DFGTLVC9YK77SAABNE67Q","2","3","1","0","1","22556","2017-09-13 17:20:35","1294"
"A3FMNDB96SUKOY","caus_thomas_as_v1","33L7PJKHCGZQVXB7FGK6W2YJ6FV8TQ","8","1","2","0","0","14109","2017-09-13 17:20:36","1295"
"A2XU1TSQD45EB4","caus_thomas_as_v1","3B2X28YI3WG3VXY2MFWNCUW6UD5B6H","4","2","2","1","1","13573","2017-09-13 17:20:38","1296"
"A2Y7C4MW55HGVF
","caus_thomas_as_v1","3IJXV6UZ1XK64OASKDR29CRFLQ2RI3","3","0","1","1","0","18609","2017-09-13 17:20:39","1297"
"A3TZZCH2OD5509","caus_thomas_as_v1","3RXPCZQMQPC4FS5GWVCKI9WM2FH1GQ","4","0","1","1","0","51085","2017-09-13 17:20:43","1298"
"A2XU1TSQD45EB4","caus_thomas_as_v1","3B2X28YI3WG3VXY2MFWNCUW6UD5B6H","7","3","3","0","1","7180","2017-09-13 17:20:46","1299"
"AEQ6KLNVTRKKR","caus_thomas_as_v1","37Q970SNZE975XE7RV617NFPQQAS10","0","3","1","0","1","18795","2017-09-13 17:20:49","1300"
"A3SJUKMWZLY8V3","caus_thomas_as_v1","3L4PIM1GQTHSUOPXOVD5V0L3B90YRG","2","0","1","1","0","27468","2017-09-13 17:20:49","1301"
"A2Y7C4MW55HGVF
","caus_thomas_as_v1","3IJXV6UZ1XK64OASKDR29CRFLQ2RI3","6","3","2","0","1","9462","2017-09-13 17:20:50","1302"
"A3FMNDB96SUKOY","caus_thomas_as_v1","33L7PJKHCGZQVXB7FGK6W2YJ6FV8TQ","8","0","3","1","0","13981","2017-09-13 17:20:51","1303"
"A1KBDB4QJKCOF9","caus_thomas_as_v1","3G2UL9A02DFGTLVC9YK77SAABNE67Q","2","0","2","1","0","15907","2017-09-13 17:20:52","1304"
"A2Y7C4MW55HGVF
","caus_thomas_as_v1","3IJXV6UZ1XK64OASKDR29CRFLQ2RI3","5","1","3","0","0","9050","2017-09-13 17:21:00","1305"
"AEQ6KLNVTRKKR","caus_thomas_as_v1","37Q970SNZE975XE7RV617NFPQQAS10","0","0","2","1","0","11164","2017-09-13 17:21:01","1306"
"AEQ6KLNVTRKKR","caus_thomas_as_v1","37Q970SNZE975XE7RV617NFPQQAS10","0","1","3","0","0","2260","2017-09-13 17:21:05","1307"
"A3TZZCH2OD5509","caus_thomas_as_v1","3RXPCZQMQPC4FS5GWVCKI9WM2FH1GQ","6","3","2","0","1","22809","2017-09-13 17:21:07","1308"
"A4ACN0KN920QQ","caus_thomas_as_v1","3P529IW9KYMBRZDPELOLK35OZ6LLFG","0","1","3","0","0","48741","2017-09-13 17:21:09","1309"
"AG7C4X3WKKBV","caus_thomas_as_v1","3E337GFOL997TZC51IAIFG9P5GLNGJ","3","0","0","1","0","65926","2017-09-13 17:21:11","1310"
"AVCP33K35MFW5","caus_thomas_as_v1","3NG53N1RLVKS35I0YZBMRSXMHCA8PL","5","3","1","0","1","63267","2017-09-13 17:21:12","1311"
"A1DIW2K1J89CMO","caus_thomas_as_v1","39OWYR0EPKSVRYKOX0DBEB7K8LPFY2","3","0","1","1","0","159587","2017-09-13 17:21:13","1312"
"AZEGZ5ZVM6P5A","caus_thomas_as_v1","3TE3O8573092T3WQVA6AMWKYWU5R2S","6","3","0","0","1","13679","2017-09-13 17:21:13","1313"
"AZJZFFI50U6E","caus_thomas_as_v1","34V1S5K3GS2K74J5OVIRLO1G6D2692","4","1","0","0","0","48806","2017-09-13 17:21:13","1314"
"A1KBDB4QJKCOF9","caus_thomas_as_v1","3G2UL9A02DFGTLVC9YK77SAABNE67Q","1","2","3","1","1","20915","2017-09-13 17:21:14","1315"
"AZEGZ5ZVM6P5A","caus_thomas_as_v1","3TE3O8573092T3WQVA6AMWKYWU5R2S","4","1","1","0","0","3658","2017-09-13 17:21:17","1316"
"AZEGZ5ZVM6P5A","caus_thomas_as_v1","3TE3O8573092T3WQVA6AMWKYWU5R2S","4","0","2","1","0","2457","2017-09-13 17:21:21","1317"
"A3TZZCH2OD5509","caus_thomas_as_v1","3RXPCZQMQPC4FS5GWVCKI9WM2FH1GQ","4","2","3","1","1","17166","2017-09-13 17:21:25","1318"
"AG7C4X3WKKBV","caus_thomas_as_v1","3E337GFOL997TZC51IAIFG9P5GLNGJ","1","3","1","0","1","13396","2017-09-13 17:21:25","1319"
"AZEGZ5ZVM6P5A","caus_thomas_as_v1","3TE3O8573092T3WQVA6AMWKYWU5R2S","4","2","3","1","1","5032","2017-09-13 17:21:27","1320"
"AVCP33K35MFW5","caus_thomas_as_v1","3NG53N1RLVKS35I0YZBMRSXMHCA8PL","2","0","2","1","0","15938","2017-09-13 17:21:29","1321"
"A369VZD291G1GL","caus_thomas_as_v1","3483FV8BEEK97KY63M3CB1T207S62A","8","3","2","0","1","69886","2017-09-13 17:21:30","1322"
"A3SJUKMWZLY8V3","caus_thomas_as_v1","3L4PIM1GQTHSUOPXOVD5V0L3B90YRG","1","3","2","0","1","40315","2017-09-13 17:21:31","1323"
"A8SP23ECDU4F0","caus_thomas_as_v1","3QHK8ZVMIMJLEI199J2P1DE3K8UBLP","4","2","0","1","1","4747","2017-09-13 17:21:31","1324"
"A1EV66QWCULDE5","caus_thomas_as_v1","3OUYGIZWR7ZALGDX3VY7YDR4YEY0PQ","2","0","0","1","0","27052","2017-09-13 17:21:32","1325"
"A1DIW2K1J89CMO","caus_thomas_as_v1","39OWYR0EPKSVRYKOX0DBEB7K8LPFY2","4","1","2","0","0","18983","2017-09-13 17:21:33","1326"
"A2KB01Q8Y5PJIJ
","caus_thomas_as_v1","3CTOC39K37RSHGAJTHEWGWFFXTXJ78","7","2","3","1","1","78231","2017-09-13 17:21:33","1327"
"A8SP23ECDU4F0","caus_thomas_as_v1","3QHK8ZVMIMJLEI199J2P1DE3K8UBLP","2","3","1","0","1","1531","2017-09-13 17:21:33","1328"
"A20CZCJPRP54G9","caus_thomas_as_v1","3U8YCDAGXPHVLSEC38DWYIHE3AK0QH","2","1","0","0","0","92274","2017-09-13 17:21:34","1329"
"A8SP23ECDU4F0","caus_thomas_as_v1","3QHK8ZVMIMJLEI199J2P1DE3K8UBLP","4","0","2","1","0","1210","2017-09-13 17:21:35","1330"
"AG7C4X3WKKBV","caus_thomas_as_v1","3E337GFOL997TZC51IAIFG9P5GLNGJ","5","2","2","1","1","10827","2017-09-13 17:21:37","1331"
"A8SP23ECDU4F0","caus_thomas_as_v1","3QHK8ZVMIMJLEI199J2P1DE3K8UBLP","3","1","3","0","0","2493","2017-09-13 17:21:39","1332"
"A3SJUKMWZLY8V3","caus_thomas_as_v1","3L4PIM1GQTHSUOPXOVD5V0L3B90YRG","1","1","3","0","0","9873","2017-09-13 17:21:42","1333"
"AVCP33K35MFW5","caus_thomas_as_v1","3NG53N1RLVKS35I0YZBMRSXMHCA8PL","5","1","3","0","0","12400","2017-09-13 17:21:42","1334"
"A369VZD291G1GL","caus_thomas_as_v1","3483FV8BEEK97KY63M3CB1T207S62A","8","2","3","1","1","12035","2017-09-13 17:21:43","1335"
"A1DIW2K1J89CMO","caus_thomas_as_v1","39OWYR0EPKSVRYKOX0DBEB7K8LPFY2","4","3","3","0","1","12959","2017-09-13 17:21:47","1336"
"AS2WTWYVRW9BV","caus_thomas_as_v1","34S9DKFK73Q7FQX5VOWOMGGTACBNYH","2","0","0","1","0","43344","2017-09-13 17:21:51","1337"
"A1Y2DJ636BLO2N","caus_thomas_as_v1","3PEIJLRY6TU82FG9IT19ZLMB1ILWXB","5","3","0","0","1","61367","2017-09-13 17:21:52","1338"
"A1EV66QWCULDE5","caus_thomas_as_v1","3OUYGIZWR7ZALGDX3VY7YDR4YEY0PQ","5","2","1","1","1","19598","2017-09-13 17:21:52","1339"
"AZJZFFI50U6E","caus_thomas_as_v1","34V1S5K3GS2K74J5OVIRLO1G6D2692","5","2","1","1","1","39157","2017-09-13 17:21:53","1340"
"AG7C4X3WKKBV","caus_thomas_as_v1","3E337GFOL997TZC51IAIFG9P5GLNGJ","1","1","3","0","0","16331","2017-09-13 17:21:54","1341"
"A1YZW7RP20U8HN","caus_thomas_as_v1","35GCEFQ6I5P0GCE09RESR9RPBPOZ34","7","1","0","0","0","91021","2017-09-13 17:21:56","1342"
"A2B595IM4PWWZ4","caus_thomas_as_v1","3YMU66OBIN9FJ3QUYKF5AWCTJ4CGH3","7","3","0","0","1","88747","2017-09-13 17:21:57","1343"
"A1EV66QWCULDE5","caus_thomas_as_v1","3OUYGIZWR7ZALGDX3VY7YDR4YEY0PQ","6","3","2","0","1","13165","2017-09-13 17:22:07","1344"
"AS2WTWYVRW9BV","caus_thomas_as_v1","34S9DKFK73Q7FQX5VOWOMGGTACBNYH","0","3","1","0","1","16180","2017-09-13 17:22:08","1345"
"AT25HW4O2XW2H","caus_thomas_as_v1","3PPTZCWALQLSNDK272QO4HK0LH2ZQ7","4","1","0","0","0","15717","2017-09-13 17:22:08","1346"
"A1GS9V5QVMQ9VO","caus_thomas_as_v1","345LHZDEDXTJUDKQ34FKAHCA979U3A","1","2","0","1","1","44979","2017-09-13 17:22:09","1347"
"A20CZCJPRP54G9","caus_thomas_as_v1","3U8YCDAGXPHVLSEC38DWYIHE3AK0QH","2","3","1","0","1","36305","2017-09-13 17:22:11","1348"
"A2B595IM4PWWZ4","caus_thomas_as_v1","3YMU66OBIN9FJ3QUYKF5AWCTJ4CGH3","7","1","1","0","0","17278","2017-09-13 17:22:15","1349"
"A3C91YMB15MLJX","caus_thomas_as_v1","3DEL4X4EL6MCRKB9XUJXKI7RCQLXYB","5","0","0","1","0","29489","2017-09-13 17:22:16","1350"
"AT25HW4O2XW2H","caus_thomas_as_v1","3PPTZCWALQLSNDK272QO4HK0LH2ZQ7","6","2","1","1","1","8237","2017-09-13 17:22:18","1351"
"A20CZCJPRP54G9","caus_thomas_as_v1","3U8YCDAGXPHVLSEC38DWYIHE3AK0QH","1","0","2","1","0","8991","2017-09-13 17:22:21","1352"
"AA7IXIG89RV1V","caus_thomas_as_v1","3YWRV122CS05VAQWFLAG1YKLPT1U82","5","2","0","1","1","61369","2017-09-13 17:22:21","1353"
"A1Y2DJ636BLO2N","caus_thomas_as_v1","3PEIJLRY6TU82FG9IT19ZLMB1ILWXB","1","2","1","1","1","31550","2017-09-13 17:22:24","1354"
"AT25HW4O2XW2H","caus_thomas_as_v1","3PPTZCWALQLSNDK272QO4HK0LH2ZQ7","6","0","2","1","0","6135","2017-09-13 17:22:24","1355"
"AU6ZURVHX4KPT","caus_thomas_as_v1","3WOKGM4L71HS0G1WOVLS9DMEO91O0W","4","2","0","1","1","95569","2017-09-13 17:22:27","1356"
"A1EV66QWCULDE5","caus_thomas_as_v1","3OUYGIZWR7ZALGDX3VY7YDR4YEY0PQ","3","1","3","0","0","19767","2017-09-13 17:22:27","1357"
"A3EQLWQG7S01UB","caus_thomas_as_v1","3R6P78PK7KC5OCHPYEWUOFFHUY8GTE","8","0","0","1","0","59188","2017-09-13 17:22:30","1358"
"AT25HW4O2XW2H","caus_thomas_as_v1","3PPTZCWALQLSNDK272QO4HK0LH2ZQ7","7","3","3","0","1","6947","2017-09-13 17:22:32","1359"
"A1GS9V5QVMQ9VO","caus_thomas_as_v1","345LHZDEDXTJUDKQ34FKAHCA979U3A","7","1","1","0","0","23875","2017-09-13 17:22:34","1360"
"A2B595IM4PWWZ4","caus_thomas_as_v1","3YMU66OBIN9FJ3QUYKF5AWCTJ4CGH3","7","2","2","1","1","18092","2017-09-13 17:22:34","1361"
"A2BGRGVU9HG0C6","caus_thomas_as_v1","3E1QT0TDFPA0MJVWL4L2IVWAVYF8I9","5","0","0","1","0","35291","2017-09-13 17:22:35","1362"
"AZJZFFI50U6E","caus_thomas_as_v1","34V1S5K3GS2K74J5OVIRLO1G6D2692","2","3","2","0","1","43712","2017-09-13 17:22:38","1363"
"A20CZCJPRP54G9","caus_thomas_as_v1","3U8YCDAGXPHVLSEC38DWYIHE3AK0QH","0","2","3","1","1","18249","2017-09-13 17:22:40","1364"
"A3C91YMB15MLJX","caus_thomas_as_v1","3DEL4X4EL6MCRKB9XUJXKI7RCQLXYB","3","2","1","1","1","25193","2017-09-13 17:22:42","1365"
"A1Y2DJ636BLO2N","caus_thomas_as_v1","3PEIJLRY6TU82FG9IT19ZLMB1ILWXB","1","0","2","1","0","21816","2017-09-13 17:22:47","1366"
"AU6ZURVHX4KPT","caus_thomas_as_v1","3WOKGM4L71HS0G1WOVLS9DMEO91O0W","4","1","1","0","0","21683","2017-09-13 17:22:50","1367"
"A2B595IM4PWWZ4","caus_thomas_as_v1","3YMU66OBIN9FJ3QUYKF5AWCTJ4CGH3","6","0","3","1","0","16086","2017-09-13 17:22:51","1368"
"AA7IXIG89RV1V","caus_thomas_as_v1","3YWRV122CS05VAQWFLAG1YKLPT1U82","6","1","1","0","0","30286","2017-09-13 17:22:52","1369"
"A1GS9V5QVMQ9VO","caus_thomas_as_v1","345LHZDEDXTJUDKQ34FKAHCA979U3A","7","3","2","0","1","20709","2017-09-13 17:22:55","1370"
"A3C91YMB15MLJX","caus_thomas_as_v1","3DEL4X4EL6MCRKB9XUJXKI7RCQLXYB","7","1","2","0","0","12589","2017-09-13 17:22:56","1371"
"A2TFMDDIPNF02W","caus_thomas_as_v1","3KXIR214I4HVSXUSKYAXE39O4GM24L","8","3","0","0","1","63815","2017-09-13 17:22:57","1372"
"A1Y2DJ636BLO2N","caus_thomas_as_v1","3PEIJLRY6TU82FG9IT19ZLMB1ILWXB","1","1","3","0","0","9945","2017-09-13 17:22:58","1373"
"A2BGRGVU9HG0C6","caus_thomas_as_v1","3E1QT0TDFPA0MJVWL4L2IVWAVYF8I9","4","1","1","0","0","25321","2017-09-13 17:23:01","1374"
"A3EQLWQG7S01UB","caus_thomas_as_v1","3R6P78PK7KC5OCHPYEWUOFFHUY8GTE","8","3","1","0","1","30207","2017-09-13 17:23:01","1375"
"A1YZW7RP20U8HN","caus_thomas_as_v1","35GCEFQ6I5P0GCE09RESR9RPBPOZ34","7","0","1","1","0","64261","2017-09-13 17:23:02","1376"
"AZJZFFI50U6E","caus_thomas_as_v1","34V1S5K3GS2K74J5OVIRLO1G6D2692","5","0","3","1","0","24369","2017-09-13 17:23:03","1377"
"AU6ZURVHX4KPT","caus_thomas_as_v1","3WOKGM4L71HS0G1WOVLS9DMEO91O0W","4","3","2","0","1","14169","2017-09-13 17:23:05","1378"
"A3C91YMB15MLJX","caus_thomas_as_v1","3DEL4X4EL6MCRKB9XUJXKI7RCQLXYB","8","3","3","0","1","9859","2017-09-13 17:23:07","1379"
"A34SUZWGLXIWM8","caus_thomas_as_v1","3K5TEWLKGVCYXVR9TXWCA9GI6WFIVN","6","1","0","0","0","47889","2017-09-13 17:23:11","1380"
"A3EQLWQG7S01UB","caus_thomas_as_v1","3R6P78PK7KC5OCHPYEWUOFFHUY8GTE","8","1","2","0","0","10244","2017-09-13 17:23:12","1381"
"AA7IXIG89RV1V","caus_thomas_as_v1","3YWRV122CS05VAQWFLAG1YKLPT1U82","4","0","2","1","0","20040","2017-09-13 17:23:14","1382"
"A1GS9V5QVMQ9VO","caus_thomas_as_v1","345LHZDEDXTJUDKQ34FKAHCA979U3A","7","0","3","1","0","17429","2017-09-13 17:23:14","1383"
"A2BGRGVU9HG0C6","caus_thomas_as_v1","3E1QT0TDFPA0MJVWL4L2IVWAVYF8I9","2","3","2","0","1","14227","2017-09-13 17:23:16","1384"
"A1YZW7RP20U8HN","caus_thomas_as_v1","35GCEFQ6I5P0GCE09RESR9RPBPOZ34","8","3","2","0","1","15355","2017-09-13 17:23:18","1385"
"AU6ZURVHX4KPT","caus_thomas_as_v1","3WOKGM4L71HS0G1WOVLS9DMEO91O0W","4","0","3","1","0","14970","2017-09-13 17:23:21","1386"
"AO4241SMFJ95K","caus_thomas_as_v1","32VNZTT0A75CWHBDZOPYFBHWG81R4O","7","3","0","0","1","134957","2017-09-13 17:23:22","1387"
"A3EQLWQG7S01UB","caus_thomas_as_v1","3R6P78PK7KC5OCHPYEWUOFFHUY8GTE","8","2","3","1","1","13269","2017-09-13 17:23:27","1388"
"A2BGRGVU9HG0C6","caus_thomas_as_v1","3E1QT0TDFPA0MJVWL4L2IVWAVYF8I9","6","2","3","1","1","10069","2017-09-13 17:23:27","1389"
"A1WZSKFXN2G8RI","caus_thomas_as_v1","3OB0CAO74HQF5UBUSQ1BHWJXO02YHJ","4","0","0","1","0","203417","2017-09-13 17:23:27","1390"
"A34SUZWGLXIWM8","caus_thomas_as_v1","3K5TEWLKGVCYXVR9TXWCA9GI6WFIVN","8","3","1","0","1","15131","2017-09-13 17:23:27","1391"
"A1T8EFHGSEE3RD","caus_thomas_as_v1","37TD41K0AHARS0O57SVLOJYGUN1SCQ","4","2","0","1","1","41068","2017-09-13 17:23:29","1392"
"A2E8RRV64NGTW4","caus_thomas_as_v1","33SA9F9TRXVZWFPSNOBHBW14LCAWE2","4","0","0","1","0","89829","2017-09-13 17:23:31","1393"
"AA7IXIG89RV1V","caus_thomas_as_v1","3YWRV122CS05VAQWFLAG1YKLPT1U82","6","3","3","0","1","18073","2017-09-13 17:23:33","1394"
"A2TFMDDIPNF02W","caus_thomas_as_v1","3KXIR214I4HVSXUSKYAXE39O4GM24L","5","1","1","0","0","41130","2017-09-13 17:23:39","1395"
"AO4241SMFJ95K","caus_thomas_as_v1","32VNZTT0A75CWHBDZOPYFBHWG81R4O","6","1","1","0","0","19284","2017-09-13 17:23:42","1396"
"A2E8RRV64NGTW4","caus_thomas_as_v1","33SA9F9TRXVZWFPSNOBHBW14LCAWE2","8","3","1","0","1","14048","2017-09-13 17:23:46","1397"
"A1WZSKFXN2G8RI","caus_thomas_as_v1","3OB0CAO74HQF5UBUSQ1BHWJXO02YHJ","4","1","1","0","0","17965","2017-09-13 17:23:46","1398"
"A1T8EFHGSEE3RD","caus_thomas_as_v1","37TD41K0AHARS0O57SVLOJYGUN1SCQ","5","0","1","1","0","18028","2017-09-13 17:23:46","1399"
"A1YZW7RP20U8HN","caus_thomas_as_v1","35GCEFQ6I5P0GCE09RESR9RPBPOZ34","4","2","3","1","1","28581","2017-09-13 17:23:48","1400"
"AS2WTWYVRW9BV","caus_thomas_as_v1","34S9DKFK73Q7FQX5VOWOMGGTACBNYH","1","1","2","0","0","99222","2017-09-13 17:23:48","1401"
"A34SUZWGLXIWM8","caus_thomas_as_v1","3K5TEWLKGVCYXVR9TXWCA9GI6WFIVN","4","2","2","1","1","22181","2017-09-13 17:23:51","1402"
"AO4241SMFJ95K","caus_thomas_as_v1","32VNZTT0A75CWHBDZOPYFBHWG81R4O","5","0","2","1","0","10429","2017-09-13 17:23:54","1403"
"A2E8RRV64NGTW4","caus_thomas_as_v1","33SA9F9TRXVZWFPSNOBHBW14LCAWE2","7","2","2","1","1","9795","2017-09-13 17:23:57","1404"
"A1WZSKFXN2G8RI","caus_thomas_as_v1","3OB0CAO74HQF5UBUSQ1BHWJXO02YHJ","4","3","2","0","1","11324","2017-09-13 17:23:59","1405"
"A1T8EFHGSEE3RD","caus_thomas_as_v1","37TD41K0AHARS0O57SVLOJYGUN1SCQ","6","1","2","0","0","13359","2017-09-13 17:24:01","1406"
"AS2WTWYVRW9BV","caus_thomas_as_v1","34S9DKFK73Q7FQX5VOWOMGGTACBNYH","5","2","3","1","1","13683","2017-09-13 17:24:03","1407"
"A2TFMDDIPNF02W","caus_thomas_as_v1","3KXIR214I4HVSXUSKYAXE39O4GM24L","3","0","2","1","0","23353","2017-09-13 17:24:04","1408"
"A34SUZWGLXIWM8","caus_thomas_as_v1","3K5TEWLKGVCYXVR9TXWCA9GI6WFIVN","4","0","3","1","0","12548","2017-09-13 17:24:04","1409"
"AO4241SMFJ95K","caus_thomas_as_v1","32VNZTT0A75CWHBDZOPYFBHWG81R4O","5","2","3","1","1","9976","2017-09-13 17:24:05","1410"
"AHUF4DFE1BURS","caus_thomas_as_v1","3QAVNHZ3EM5GV8WH352T62UX2Q9ALT","6","1","0","0","0","27872","2017-09-13 17:24:15","1411"
"A2E8RRV64NGTW4","caus_thomas_as_v1","33SA9F9TRXVZWFPSNOBHBW14LCAWE2","3","1","3","0","0","18351","2017-09-13 17:24:16","1412"
"A1A3TGZ7DKJWRW","caus_thomas_as_v1","3K2755HG5S4STNPX14QX1QXJQXJDFS","0","2","0","1","1","18193","2017-09-13 17:24:19","1413"
"A1T8EFHGSEE3RD","caus_thomas_as_v1","37TD41K0AHARS0O57SVLOJYGUN1SCQ","6","3","3","0","1","17819","2017-09-13 17:24:20","1414"
"A1WZSKFXN2G8RI","caus_thomas_as_v1","3OB0CAO74HQF5UBUSQ1BHWJXO02YHJ","4","2","3","1","1","26909","2017-09-13 17:24:26","1415"
"A1A3TGZ7DKJWRW","caus_thomas_as_v1","3K2755HG5S4STNPX14QX1QXJQXJDFS","0","0","1","1","0","7249","2017-09-13 17:24:27","1416"
"A2TFMDDIPNF02W","caus_thomas_as_v1","3KXIR214I4HVSXUSKYAXE39O4GM24L","2","2","3","1","1","22593","2017-09-13 17:24:27","1417"
"AHUF4DFE1BURS","caus_thomas_as_v1","3QAVNHZ3EM5GV8WH352T62UX2Q9ALT","7","3","1","0","1","16297","2017-09-13 17:24:32","1418"
"A1A3TGZ7DKJWRW","caus_thomas_as_v1","3K2755HG5S4STNPX14QX1QXJQXJDFS","0","1","2","0","0","6627","2017-09-13 17:24:35","1419"
"AHUF4DFE1BURS","caus_thomas_as_v1","3QAVNHZ3EM5GV8WH352T62UX2Q9ALT","3","2","2","1","1","8639","2017-09-13 17:24:41","1420"
"A1A3TGZ7DKJWRW","caus_thomas_as_v1","3K2755HG5S4STNPX14QX1QXJQXJDFS","0","3","3","0","1","10498","2017-09-13 17:24:46","1421"
"A2RDNYV4SH5E89","caus_thomas_as_v1","30JNVC0OR9L6WSK81GKH4AGVPRMHQ0","2","1","0","0","0","82290","2017-09-13 17:24:48","1422"
"AHUF4DFE1BURS","caus_thomas_as_v1","3QAVNHZ3EM5GV8WH352T62UX2Q9ALT","6","0","3","1","0","7182","2017-09-13 17:24:50","1423"
"A2RDNYV4SH5E89","caus_thomas_as_v1","30JNVC0OR9L6WSK81GKH4AGVPRMHQ0","0","2","1","1","1","12284","2017-09-13 17:25:01","1424"
"AAR6MYZQ0EYMZ","caus_thomas_as_v1","3UJ1CZ6IZHQ6TFFQSI8DADS626FS5I","2","0","0","1","0","44649","2017-09-13 17:25:07","1425"
"A2ZRF4I5RTKN7G","caus_thomas_as_v1","3HOSI13XHZPVV3B1AYV7DQUYEK3DDH","4","3","0","0","1","16867","2017-09-13 17:25:08","1426"
"A1IEG1TEH8V1RP","caus_thomas_as_v1","3U8YCDAGXPHVLSEC38DWYIHE3AJQ06","3","2","0","1","1","46345","2017-09-13 17:25:08","1427"
"A2RDNYV4SH5E89","caus_thomas_as_v1","30JNVC0OR9L6WSK81GKH4AGVPRMHQ0","1","3","2","0","1","7380","2017-09-13 17:25:10","1428"
"A24O8U6HKPJKVA","caus_thomas_as_v1","3M68NM076H8QB4FRICIDC91ACZ7R69","5","2","0","1","1","61924","2017-09-13 17:25:12","1429"
"A38OPVI04AH4JG","caus_thomas_as_v1","3M81GAB8A0KW5FHM1OALIZDXUEGQBS","5","2","0","1","1","34189","2017-09-13 17:25:13","1430"
"A2ZRF4I5RTKN7G","caus_thomas_as_v1","3HOSI13XHZPVV3B1AYV7DQUYEK3DDH","4","0","1","1","0","5736","2017-09-13 17:25:15","1431"
"A2RDNYV4SH5E89","caus_thomas_as_v1","30JNVC0OR9L6WSK81GKH4AGVPRMHQ0","1","0","3","1","0","4168","2017-09-13 17:25:15","1432"
"AAR6MYZQ0EYMZ","caus_thomas_as_v1","3UJ1CZ6IZHQ6TFFQSI8DADS626FS5I","3","3","1","0","1","12314","2017-09-13 17:25:21","1433"
"A2ZRF4I5RTKN7G","caus_thomas_as_v1","3HOSI13XHZPVV3B1AYV7DQUYEK3DDH","4","1","2","0","0","5345","2017-09-13 17:25:21","1434"
"A24O8U6HKPJKVA","caus_thomas_as_v1","3M68NM076H8QB4FRICIDC91ACZ7R69","3","3","1","0","1","9517","2017-09-13 17:25:23","1435"
"A2ZRF4I5RTKN7G","caus_thomas_as_v1","3HOSI13XHZPVV3B1AYV7DQUYEK3DDH","4","2","3","1","1","4985","2017-09-13 17:25:27","1436"
"AAR6MYZQ0EYMZ","caus_thomas_as_v1","3UJ1CZ6IZHQ6TFFQSI8DADS626FS5I","3","2","2","1","1","11549","2017-09-13 17:25:33","1437"
"A24O8U6HKPJKVA","caus_thomas_as_v1","3M68NM076H8QB4FRICIDC91ACZ7R69","6","1","2","0","0","12784","2017-09-13 17:25:37","1438"
"A1IEG1TEH8V1RP","caus_thomas_as_v1","3U8YCDAGXPHVLSEC38DWYIHE3AJQ06","4","0","1","1","0","32012","2017-09-13 17:25:41","1439"
"AAR6MYZQ0EYMZ","caus_thomas_as_v1","3UJ1CZ6IZHQ6TFFQSI8DADS626FS5I","3","1","3","0","0","8717","2017-09-13 17:25:43","1440"
"A24O8U6HKPJKVA","caus_thomas_as_v1","3M68NM076H8QB4FRICIDC91ACZ7R69","2","0","3","1","0","9057","2017-09-13 17:25:47","1441"
"A1IEG1TEH8V1RP","caus_thomas_as_v1","3U8YCDAGXPHVLSEC38DWYIHE3AJQ06","6","3","2","0","1","14428","2017-09-13 17:25:56","1442"
"A38OPVI04AH4JG","caus_thomas_as_v1","3M81GAB8A0KW5FHM1OALIZDXUEGQBS","5","0","1","1","0","46696","2017-09-13 17:26:01","1443"
"A1IEG1TEH8V1RP","caus_thomas_as_v1","3U8YCDAGXPHVLSEC38DWYIHE3AJQ06","6","1","3","0","0","7992","2017-09-13 17:26:05","1444"
"A38OPVI04AH4JG","caus_thomas_as_v1","3M81GAB8A0KW5FHM1OALIZDXUEGQBS","7","3","2","0","1","16641","2017-09-13 17:26:19","1445"
"A33L61XKPX76DB","caus_thomas_as_v1","3T111IHZ5ERDTNHPGJLPWJSC20FR9K","6","2","0","1","1","126698","2017-09-13 17:26:27","1446"
"A38OPVI04AH4JG","caus_thomas_as_v1","3M81GAB8A0KW5FHM1OALIZDXUEGQBS","6","1","3","0","0","14500","2017-09-13 17:26:34","1447"
"A1CFIFCBCJ4ODO","caus_thomas_as_v1","3X4JMASXCMA8HMCNKQG63TMFHAIB0F","5","0","0","1","0","40000","2017-09-13 17:27:11","1448"
"A33L61XKPX76DB","caus_thomas_as_v1","3T111IHZ5ERDTNHPGJLPWJSC20FR9K","8","1","1","0","0","48292","2017-09-13 17:27:16","1449"
"AEF94JKX6FG92
","caus_thomas_as_v1","3SUWZRL0MYE120AMW6YDD22RXAIE6K","8","1","0","0","0","56547","2017-09-13 17:27:17","1450"
"AXPOBOA6RMCV0","caus_thomas_as_v1","3DY46V3X3PJ5NDHFGMV5H2IEOM755T","2","1","0","0","0","15504","2017-09-13 17:27:17","1451"
"AXPOBOA6RMCV0","caus_thomas_as_v1","3DY46V3X3PJ5NDHFGMV5H2IEOM755T","2","0","1","1","0","6554","2017-09-13 17:27:25","1452"
"A133QG754CGS3I","caus_thomas_as_v1","3LRLIPTPEQA5B2EZI5QSR2HIDQ4AKQ","4","0","0","1","0","52146","2017-09-13 17:27:26","1453"
"A1CFIFCBCJ4ODO","caus_thomas_as_v1","3X4JMASXCMA8HMCNKQG63TMFHAIB0F","8","3","1","0","1","14670","2017-09-13 17:27:27","1454"
"AXPOBOA6RMCV0","caus_thomas_as_v1","3DY46V3X3PJ5NDHFGMV5H2IEOM755T","4","2","2","1","1","5160","2017-09-13 17:27:31","1455"
"A33L61XKPX76DB","caus_thomas_as_v1","3T111IHZ5ERDTNHPGJLPWJSC20FR9K","8","0","2","1","0","15149","2017-09-13 17:27:33","1456"
"A1CFIFCBCJ4ODO","caus_thomas_as_v1","3X4JMASXCMA8HMCNKQG63TMFHAIB0F","5","2","2","1","1","9833","2017-09-13 17:27:38","1457"
"AXPOBOA6RMCV0","caus_thomas_as_v1","3DY46V3X3PJ5NDHFGMV5H2IEOM755T","1","3","3","0","1","6736","2017-09-13 17:27:39","1458"
"AEF94JKX6FG92
","caus_thomas_as_v1","3SUWZRL0MYE120AMW6YDD22RXAIE6K","8","3","1","0","1","20860","2017-09-13 17:27:39","1459"
"A133QG754CGS3I","caus_thomas_as_v1","3LRLIPTPEQA5B2EZI5QSR2HIDQ4AKQ","4","2","1","1","1","13875","2017-09-13 17:27:41","1460"
"A1CFIFCBCJ4ODO","caus_thomas_as_v1","3X4JMASXCMA8HMCNKQG63TMFHAIB0F","7","1","3","0","0","6459","2017-09-13 17:27:45","1461"
"A33L61XKPX76DB","caus_thomas_as_v1","3T111IHZ5ERDTNHPGJLPWJSC20FR9K","8","3","3","0","1","13125","2017-09-13 17:27:47","1462"
"A133QG754CGS3I","caus_thomas_as_v1","3LRLIPTPEQA5B2EZI5QSR2HIDQ4AKQ","4","3","2","0","1","7002","2017-09-13 17:27:49","1463"
"A133QG754CGS3I","caus_thomas_as_v1","3LRLIPTPEQA5B2EZI5QSR2HIDQ4AKQ","4","1","3","0","0","5655","2017-09-13 17:27:55","1464"
"A2GU2QUQZNSG9U","caus_thomas_as_v1","37M28K1J0QEA0I8H0KQGQNH5Y13JAZ","3","2","0","1","1","232958","2017-09-13 17:27:58","1465"
"A2GU2QUQZNSG9U","caus_thomas_as_v1","37M28K1J0QEA0I8H0KQGQNH5Y13JAZ","3","0","1","1","0","15618","2017-09-13 17:28:15","1466"
"A22KRF782ELLB0","caus_thomas_as_v1","3C44YUNSI1Q4K0ERF7M2DKBNS36DPV","3","2","0","1","1","37833","2017-09-13 17:28:58","1467"
"A1CC1ESUM2JWJ2
","caus_thomas_as_v1","38SKSKU7R1YV1QFFFTU6N0IGFYDIL4","0","2","0","1","1","23667","2017-09-13 17:29:01","1468"
"A1CC1ESUM2JWJ2
","caus_thomas_as_v1","38SKSKU7R1YV1QFFFTU6N0IGFYDIL4","8","3","1","0","1","12054","2017-09-13 17:29:14","1469"
"A22KRF782ELLB0","caus_thomas_as_v1","3C44YUNSI1Q4K0ERF7M2DKBNS36DPV","6","3","1","0","1","17933","2017-09-13 17:29:17","1470"
"A1CC1ESUM2JWJ2
","caus_thomas_as_v1","38SKSKU7R1YV1QFFFTU6N0IGFYDIL4","8","1","2","0","0","6373","2017-09-13 17:29:22","1471"
"A1CC1ESUM2JWJ2
","caus_thomas_as_v1","38SKSKU7R1YV1QFFFTU6N0IGFYDIL4","8","0","3","1","0","4165","2017-09-13 17:29:27","1472"
"A1FOETNZPX6EE7","caus_thomas_as_v1","3HMIGG0U4L7MCJA1PM754JQYLHCY84","8","2","0","1","1","71755","2017-09-13 17:29:34","1473"
"A22KRF782ELLB0","caus_thomas_as_v1","3C44YUNSI1Q4K0ERF7M2DKBNS36DPV","3","0","2","1","0","20148","2017-09-13 17:29:38","1474"
"A188MJ88SORBV3
","caus_thomas_as_v1","3SUWZRL0MYE120AMW6YDD22RXAIE6K","7","3","0","0","1","56790","2017-09-13 17:29:39","1475"
"A2GU2QUQZNSG9U","caus_thomas_as_v1","37M28K1J0QEA0I8H0KQGQNH5Y13JAZ","3","3","2","0","1","93579","2017-09-13 17:29:49","1476"
"A188MJ88SORBV3
","caus_thomas_as_v1","3SUWZRL0MYE120AMW6YDD22RXAIE6K","5","0","1","1","0","15029","2017-09-13 17:29:55","1477"
"A22KRF782ELLB0","caus_thomas_as_v1","3C44YUNSI1Q4K0ERF7M2DKBNS36DPV","5","1","3","0","0","17538","2017-09-13 17:29:57","1478"
"A2GU2QUQZNSG9U","caus_thomas_as_v1","37M28K1J0QEA0I8H0KQGQNH5Y13JAZ","2","1","3","0","0","10981","2017-09-13 17:30:01","1479"
"A188MJ88SORBV3
","caus_thomas_as_v1","3SUWZRL0MYE120AMW6YDD22RXAIE6K","3","2","2","1","1","9271","2017-09-13 17:30:05","1480"
"A188MJ88SORBV3
","caus_thomas_as_v1","3SUWZRL0MYE120AMW6YDD22RXAIE6K","5","1","3","0","0","6823","2017-09-13 17:30:13","1481"
"A1FOETNZPX6EE7","caus_thomas_as_v1","3HMIGG0U4L7MCJA1PM754JQYLHCY84","8","0","1","1","0","60198","2017-09-13 17:30:35","1482"
"A1FOETNZPX6EE7","caus_thomas_as_v1","3HMIGG0U4L7MCJA1PM754JQYLHCY84","8","3","2","0","1","32442","2017-09-13 17:31:09","1483"
"A1KX1CMLUCQNFX","caus_thomas_as_v1","3A9AA95ATWN9GNZY014JF8NVFM9P50","6","1","0","0","0","34317","2017-09-13 17:31:43","1484"
"A1FOETNZPX6EE7","caus_thomas_as_v1","3HMIGG0U4L7MCJA1PM754JQYLHCY84","8","1","3","0","0","33960","2017-09-13 17:31:43","1485"
"A1KX1CMLUCQNFX","caus_thomas_as_v1","3A9AA95ATWN9GNZY014JF8NVFM9P50","6","0","1","1","0","7418","2017-09-13 17:31:51","1486"
"A1KX1CMLUCQNFX","caus_thomas_as_v1","3A9AA95ATWN9GNZY014JF8NVFM9P50","5","2","2","1","1","19883","2017-09-13 17:32:12","1487"
"A1KX1CMLUCQNFX","caus_thomas_as_v1","3A9AA95ATWN9GNZY014JF8NVFM9P50","3","3","3","0","1","7996","2017-09-13 17:32:21","1488"
"A2TCWEYMI1JHIG","caus_thomas_as_v1","32UTUBMZ7GXOAND3NN4VOMC5B6WVBS","2","3","0","0","1","64606","2017-09-13 17:32:24","1489"
"A2TCWEYMI1JHIG","caus_thomas_as_v1","32UTUBMZ7GXOAND3NN4VOMC5B6WVBS","3","1","1","0","0","26570","2017-09-13 17:32:52","1490"
"A2TCWEYMI1JHIG","caus_thomas_as_v1","32UTUBMZ7GXOAND3NN4VOMC5B6WVBS","4","2","2","1","1","23081","2017-09-13 17:33:16","1491"
"A2TCWEYMI1JHIG","caus_thomas_as_v1","32UTUBMZ7GXOAND3NN4VOMC5B6WVBS","4","0","3","1","0","14261","2017-09-13 17:33:31","1492"
"A1GV0UZU0T2ORS","caus_thomas_as_v1","3OF2M9AATGP6CAM7UX6R8V8RMBAKZ0","3","1","0","0","0","31828","2017-09-13 17:33:37","1493"
"A1GQS6USF2JEYG
","caus_thomas_as_v1","3RXPCZQMQPC4FS5GWVCKI9WM2FGG14","8","3","0","0","1","23985","2017-09-13 17:33:56","1494"
"A1GV0UZU0T2ORS","caus_thomas_as_v1","3OF2M9AATGP6CAM7UX6R8V8RMBAKZ0","4","0","1","1","0","23201","2017-09-13 17:34:02","1495"
"A1GQS6USF2JEYG
","caus_thomas_as_v1","3RXPCZQMQPC4FS5GWVCKI9WM2FGG14","4","1","1","0","0","14748","2017-09-13 17:34:12","1496"
"A1GV0UZU0T2ORS","caus_thomas_as_v1","3OF2M9AATGP6CAM7UX6R8V8RMBAKZ0","4","3","2","0","1","12045","2017-09-13 17:34:15","1497"
"A1GV0UZU0T2ORS","caus_thomas_as_v1","3OF2M9AATGP6CAM7UX6R8V8RMBAKZ0","4","2","3","1","1","6481","2017-09-13 17:34:22","1498"
"A1GQS6USF2JEYG
","caus_thomas_as_v1","3RXPCZQMQPC4FS5GWVCKI9WM2FGG14","4","0","2","1","0","12517","2017-09-13 17:34:25","1499"
"A6U2C66WQ7QQN","caus_thomas_as_v1","3TDXMTX3CBVDI5C8SPO4YH0JP3OI6W","3","0","0","1","0","49171","2017-09-13 17:34:29","1500"
"A1GQS6USF2JEYG
","caus_thomas_as_v1","3RXPCZQMQPC4FS5GWVCKI9WM2FGG14","7","2","3","1","1","7694","2017-09-13 17:34:34","1501"
"A6U2C66WQ7QQN","caus_thomas_as_v1","3TDXMTX3CBVDI5C8SPO4YH0JP3OI6W","6","3","1","0","1","23518","2017-09-13 17:34:54","1502"
"A6U2C66WQ7QQN","caus_thomas_as_v1","3TDXMTX3CBVDI5C8SPO4YH0JP3OI6W","5","1","2","0","0","17018","2017-09-13 17:35:12","1503"
"A6U2C66WQ7QQN","caus_thomas_as_v1","3TDXMTX3CBVDI5C8SPO4YH0JP3OI6W","4","2","3","1","1","5567","2017-09-13 17:35:18","1504"
"dsd","caus_thomas_as_v1",,"1","1","0","0","0","1903","2017-09-13 17:35:45","1505"
"dsd","caus_thomas_as_v1",,"-1","3","1","0","1","601","2017-09-13 17:35:46","1506"
"dsd","caus_thomas_as_v1",,"1","0","2","1","0","2069","2017-09-13 17:35:50","1507"
"dsd","caus_thomas_as_v1",,"1","2","3","1","1","549","2017-09-13 17:35:51","1508"
"A3FYWUZK52IC2J","caus_thomas_as_v1","3MAOD8E57QBIFL7VQSAM329K86HXNL","4","0","0","1","0","27020","2017-09-13 17:36:11","1509"
"A3FYWUZK52IC2J","caus_thomas_as_v1","3MAOD8E57QBIFL7VQSAM329K86HXNL","4","1","1","0","0","11275","2017-09-13 17:36:24","1510"
"A3FYWUZK52IC2J","caus_thomas_as_v1","3MAOD8E57QBIFL7VQSAM329K86HXNL","3","3","2","0","1","5019","2017-09-13 17:36:30","1511"
"A3FYWUZK52IC2J","caus_thomas_as_v1","3MAOD8E57QBIFL7VQSAM329K86HXNL","3","2","3","1","1","9902","2017-09-13 17:36:41","1512"
"A1F1OZ54G177D8","caus_thomas_as_v1","3FK0YFF9PZH3J1B9S4VVPY6CEYCVVY","7","3","0","0","1","28473","2017-09-13 17:39:31","1513"
"A1F1OZ54G177D8","caus_thomas_as_v1","3FK0YFF9PZH3J1B9S4VVPY6CEYCVVY","5","1","1","0","0","9012","2017-09-13 17:39:41","1514"
"A1F1OZ54G177D8","caus_thomas_as_v1","3FK0YFF9PZH3J1B9S4VVPY6CEYCVVY","5","0","2","1","0","6458","2017-09-13 17:39:49","1515"
"A1F1OZ54G177D8","caus_thomas_as_v1","3FK0YFF9PZH3J1B9S4VVPY6CEYCVVY","4","2","3","1","1","7653","2017-09-13 17:39:57","1516"
"A1U6A617Q95MTZ","caus_thomas_as_v1","386CSBG1OZNQZ30R5XTD7JR5GD5Q67","2","3","0","0","1","16122","2017-09-13 17:42:17","1517"
"A1U6A617Q95MTZ","caus_thomas_as_v1","386CSBG1OZNQZ30R5XTD7JR5GD5Q67","0","0","1","1","0","9150","2017-09-13 17:42:27","1518"
"A1U6A617Q95MTZ","caus_thomas_as_v1","386CSBG1OZNQZ30R5XTD7JR5GD5Q67","8","1","2","0","0","11850","2017-09-13 17:42:40","1519"
"A1U6A617Q95MTZ","caus_thomas_as_v1","386CSBG1OZNQZ30R5XTD7JR5GD5Q67","8","2","3","1","1","9526","2017-09-13 17:42:50","1520"
"A1FUR4UJ0S46W6","caus_thomas_as_v1","3O7L7BFSHEQHVK5NY772A5SW61CIEH","5","2","0","1","1","27278","2017-09-13 17:43:19","1521"
"A1FUR4UJ0S46W6","caus_thomas_as_v1","3O7L7BFSHEQHVK5NY772A5SW61CIEH","7","1","1","0","0","8277","2017-09-13 17:43:29","1522"
"ANMXMEB55AGM6","caus_thomas_as_v1","3R0T90IZ1SDO2VFECS14Z5FD6C7GCU","0","2","0","1","1","36532","2017-09-13 17:44:06","1523"
"A1FUR4UJ0S46W6","caus_thomas_as_v1","3O7L7BFSHEQHVK5NY772A5SW61CIEH","7","3","2","0","1","42348","2017-09-13 17:44:12","1524"
"ANMXMEB55AGM6","caus_thomas_as_v1","3R0T90IZ1SDO2VFECS14Z5FD6C7GCU","0","3","1","0","1","11250","2017-09-13 17:44:19","1525"
"A1FUR4UJ0S46W6","caus_thomas_as_v1","3O7L7BFSHEQHVK5NY772A5SW61CIEH","4","0","3","1","0","6649","2017-09-13 17:44:20","1526"
"ANMXMEB55AGM6","caus_thomas_as_v1","3R0T90IZ1SDO2VFECS14Z5FD6C7GCU","0","0","2","1","0","11707","2017-09-13 17:44:31","1527"
"ANMXMEB55AGM6","caus_thomas_as_v1","3R0T90IZ1SDO2VFECS14Z5FD6C7GCU","0","1","3","0","0","13299","2017-09-13 17:44:45","1528"
"A1OBB3PWYWK9KK","caus_thomas_as_v1","3RU7GD8VPOUAMPX9CXHR8JXNT6GPS1","2","2","0","1","1","22598","2017-09-13 17:45:09","1529"
"A1OBB3PWYWK9KK","caus_thomas_as_v1","3RU7GD8VPOUAMPX9CXHR8JXNT6GPS1","2","0","1","1","0","11511","2017-09-13 17:45:22","1530"
"A1OBB3PWYWK9KK","caus_thomas_as_v1","3RU7GD8VPOUAMPX9CXHR8JXNT6GPS1","5","1","2","0","0","7891","2017-09-13 17:45:30","1531"
"A1OBB3PWYWK9KK","caus_thomas_as_v1","3RU7GD8VPOUAMPX9CXHR8JXNT6GPS1","6","3","3","0","1","5566","2017-09-13 17:45:37","1532"
"A3JA4ZFQ2VLY7H","caus_thomas_as_v1","3DYGAII7PL9Y99IWKTSMDJIMBIVPQC","6","2","0","1","1","87624","2017-09-13 17:45:38","1533"
"A3JA4ZFQ2VLY7H","caus_thomas_as_v1","3DYGAII7PL9Y99IWKTSMDJIMBIVPQC","5","1","0","0","0","3955","2017-09-13 17:48:15","1534"
"A3JA4ZFQ2VLY7H","caus_thomas_as_v1","3DYGAII7PL9Y99IWKTSMDJIMBIVPQC","6","0","1","1","0","4535","2017-09-13 17:48:20","1535"
"A566S0J4H23DI","caus_thomas_as_v1","3KGTPGBS6XMU9VO7Z41FR77I3TA2U8","6","2","0","1","1","62658","2017-09-13 17:48:22","1536"
"A3JA4ZFQ2VLY7H","caus_thomas_as_v1","3DYGAII7PL9Y99IWKTSMDJIMBIVPQC","6","2","2","1","1","4238","2017-09-13 17:48:26","1537"
"A3JA4ZFQ2VLY7H","caus_thomas_as_v1","3DYGAII7PL9Y99IWKTSMDJIMBIVPQC","7","3","3","0","1","6549","2017-09-13 17:48:33","1538"
"A566S0J4H23DI","caus_thomas_as_v1","3KGTPGBS6XMU9VO7Z41FR77I3TA2U8","1","1","1","0","0","22240","2017-09-13 17:48:46","1539"
"A566S0J4H23DI","caus_thomas_as_v1","3KGTPGBS6XMU9VO7Z41FR77I3TA2U8","4","3","2","0","1","7532","2017-09-13 17:48:55","1540"
"A566S0J4H23DI","caus_thomas_as_v1","3KGTPGBS6XMU9VO7Z41FR77I3TA2U8","1","0","3","1","0","9326","2017-09-13 17:49:06","1541"
"AJI76D4U5WGBZ","caus_thomas_as_v1","3MRNMEIQW57ETFZTNFTVW323NT5LD5","2","3","0","0","1","139203","2017-09-13 17:49:10","1542"
"A38DC3BG1ZCVZ2","caus_thomas_as_v1","34QN5IT0TZSPFOEGHEWWCRWE94Y086","2","1","0","0","0","209433","2017-09-13 17:50:20","1543"
"A38DC3BG1ZCVZ2","caus_thomas_as_v1","34QN5IT0TZSPFOEGHEWWCRWE94Y086","3","0","1","1","0","3603","2017-09-13 17:50:25","1544"
"AXHB9NHLJG55P","caus_thomas_as_v1","39U1BHVTDLS4U0513ZPA5LQ8QT2T3I","4","0","0","1","0","5281","2017-09-13 17:50:29","1545"
"AXHB9NHLJG55P","caus_thomas_as_v1","39U1BHVTDLS4U0513ZPA5LQ8QT2T3I","3","1","1","0","0","2259","2017-09-13 17:50:32","1546"
"A38DC3BG1ZCVZ2","caus_thomas_as_v1","34QN5IT0TZSPFOEGHEWWCRWE94Y086","1","2","2","1","1","7810","2017-09-13 17:50:34","1547"
"AXHB9NHLJG55P","caus_thomas_as_v1","39U1BHVTDLS4U0513ZPA5LQ8QT2T3I","4","3","2","0","1","1944","2017-09-13 17:50:35","1548"
"AXHB9NHLJG55P","caus_thomas_as_v1","39U1BHVTDLS4U0513ZPA5LQ8QT2T3I","2","2","3","1","1","2680","2017-09-13 17:50:39","1549"
"A38DC3BG1ZCVZ2","caus_thomas_as_v1","34QN5IT0TZSPFOEGHEWWCRWE94Y086","2","3","3","0","1","6632","2017-09-13 17:50:41","1550"
"APGX2WZ59OWDN","caus_thomas_as_v1","35H6S234SA116HHTL55A98WEKHI569","5","1","0","0","0","17264","2017-09-13 17:51:48","1551"
"APGX2WZ59OWDN","caus_thomas_as_v1","35H6S234SA116HHTL55A98WEKHI569","4","0","1","1","0","7145","2017-09-13 17:51:56","1552"
"APGX2WZ59OWDN","caus_thomas_as_v1","35H6S234SA116HHTL55A98WEKHI569","4","2","2","1","1","5097","2017-09-13 17:52:02","1553"
"APGX2WZ59OWDN","caus_thomas_as_v1","35H6S234SA116HHTL55A98WEKHI569","6","3","3","0","1","8560","2017-09-13 17:52:12","1554"
"A39MOCMDRIOSJM","caus_thomas_as_v1","3RXCAC0YIRQMQSP1VGLZXJJUGLMG8O","1","1","0","0","0","32820","2017-09-13 17:52:31","1555"
"A1DRDRFGZKQ6Q9","caus_thomas_as_v1","39OWYR0EPKSVRYKOX0DBEB7K8LPYFL","6","1","0","0","0","40663","2017-09-13 17:52:31","1556"
"A39MOCMDRIOSJM","caus_thomas_as_v1","3RXCAC0YIRQMQSP1VGLZXJJUGLMG8O","1","3","1","0","1","9037","2017-09-13 17:52:41","1557"
"A1DRDRFGZKQ6Q9","caus_thomas_as_v1","39OWYR0EPKSVRYKOX0DBEB7K8LPYFL","3","2","1","1","1","12322","2017-09-13 17:52:45","1558"
"A39MOCMDRIOSJM","caus_thomas_as_v1","3RXCAC0YIRQMQSP1VGLZXJJUGLMG8O","2","2","2","1","1","8613","2017-09-13 17:52:50","1559"
"A1DRDRFGZKQ6Q9","caus_thomas_as_v1","39OWYR0EPKSVRYKOX0DBEB7K8LPYFL","4","0","2","1","0","7120","2017-09-13 17:52:53","1560"
"A39MOCMDRIOSJM","caus_thomas_as_v1","3RXCAC0YIRQMQSP1VGLZXJJUGLMG8O","2","0","3","1","0","4331","2017-09-13 17:52:56","1561"
"A1DRDRFGZKQ6Q9","caus_thomas_as_v1","39OWYR0EPKSVRYKOX0DBEB7K8LPYFL","7","3","3","0","1","8083","2017-09-13 17:53:02","1562"
"A23UVI0SKMIXJX","caus_thomas_as_v1","340UGXU9DY236MM9NELQTC4T0R2UV7","8","0","0","1","0","164819","2017-09-13 17:55:26","1563"
"A23UVI0SKMIXJX","caus_thomas_as_v1","340UGXU9DY236MM9NELQTC4T0R2UV7","-1","3","1","0","1","18907","2017-09-13 17:55:46","1564"
"A23UVI0SKMIXJX","caus_thomas_as_v1","340UGXU9DY236MM9NELQTC4T0R2UV7","8","1","2","0","0","12907","2017-09-13 17:56:00","1565"
"A2VY16N1O40VEL","caus_thomas_as_v1","33PPO7FECVGC3ERN2CWI4NAB6PBIDO","1","0","0","1","0","39191","2017-09-13 17:56:02","1566"
"A23UVI0SKMIXJX","caus_thomas_as_v1","340UGXU9DY236MM9NELQTC4T0R2UV7","8","2","3","1","1","15828","2017-09-13 17:56:17","1567"
"A2VY16N1O40VEL","caus_thomas_as_v1","33PPO7FECVGC3ERN2CWI4NAB6PBIDO","1","1","1","0","0","20387","2017-09-13 17:56:23","1568"
"A2VY16N1O40VEL","caus_thomas_as_v1","33PPO7FECVGC3ERN2CWI4NAB6PBIDO","1","2","2","1","1","44120","2017-09-13 17:57:08","1569"
"A2VY16N1O40VEL","caus_thomas_as_v1","33PPO7FECVGC3ERN2CWI4NAB6PBIDO","0","3","3","0","1","12737","2017-09-13 17:57:22","1570"
"AR2BDL1QQGN53","caus_thomas_as_v1","3MRNMEIQW57ETFZTNFTVW323NT5LD5","0","0","0","1","0","48784","2017-09-13 17:57:45","1571"
"A3KT7FHYY6PF2P","caus_thomas_as_v1","3Q5ZZ9ZEVOGOAV0HEK28TMS5QC885Y","8","2","0","1","1","10444","2017-09-13 17:58:07","1572"
"AR2BDL1QQGN53","caus_thomas_as_v1","3MRNMEIQW57ETFZTNFTVW323NT5LD5","0","2","1","1","1","24436","2017-09-13 17:58:11","1573"
"A3KT7FHYY6PF2P","caus_thomas_as_v1","3Q5ZZ9ZEVOGOAV0HEK28TMS5QC885Y","2","3","1","0","1","8910","2017-09-13 17:58:17","1574"
"A3KT7FHYY6PF2P","caus_thomas_as_v1","3Q5ZZ9ZEVOGOAV0HEK28TMS5QC885Y","4","0","2","1","0","3401","2017-09-13 17:58:21","1575"
"AR2BDL1QQGN53","caus_thomas_as_v1","3MRNMEIQW57ETFZTNFTVW323NT5LD5","0","3","2","0","1","13276","2017-09-13 17:58:25","1576"
"A3KT7FHYY6PF2P","caus_thomas_as_v1","3Q5ZZ9ZEVOGOAV0HEK28TMS5QC885Y","2","1","3","0","0","4245","2017-09-13 17:58:26","1577"
"AR2BDL1QQGN53","caus_thomas_as_v1","3MRNMEIQW57ETFZTNFTVW323NT5LD5","0","1","3","0","0","9419","2017-09-13 17:58:36","1578"
"A39E9936894TJR","caus_thomas_as_v1","3OVR4I9USPKCKGWDM90YAL7RKM04Q1","7","2","0","1","1","110295","2017-09-13 18:02:05","1579"
"A4J4GGMKJ68L0","caus_thomas_as_v1","3LOTDFNYA70R2TPOIZVNTEM4XDPFW3","8","2","0","1","1","33037","2017-09-13 18:02:26","1580"
"A4J4GGMKJ68L0","caus_thomas_as_v1","3LOTDFNYA70R2TPOIZVNTEM4XDPFW3","8","0","1","1","0","9355","2017-09-13 18:02:36","1581"
"A4J4GGMKJ68L0","caus_thomas_as_v1","3LOTDFNYA70R2TPOIZVNTEM4XDPFW3","8","1","2","0","0","8835","2017-09-13 18:02:46","1582"
"A4J4GGMKJ68L0","caus_thomas_as_v1","3LOTDFNYA70R2TPOIZVNTEM4XDPFW3","8","3","3","0","1","4473","2017-09-13 18:02:51","1583"
"A39E9936894TJR","caus_thomas_as_v1","3OVR4I9USPKCKGWDM90YAL7RKM04Q1","8","0","1","1","0","49578","2017-09-13 18:02:56","1584"
"ALL5YYZDJ4FB2","caus_thomas_as_v1","3HHRAGRYX86AWAP9OR4L2ON7RDVO98","5","0","0","1","0","3172","2017-09-13 18:03:41","1585"
"ALL5YYZDJ4FB2","caus_thomas_as_v1","3HHRAGRYX86AWAP9OR4L2ON7RDVO98","3","2","1","1","1","2623","2017-09-13 18:03:44","1586"
"ALL5YYZDJ4FB2","caus_thomas_as_v1","3HHRAGRYX86AWAP9OR4L2ON7RDVO98","6","3","2","0","1","3603","2017-09-13 18:03:49","1587"
"ALL5YYZDJ4FB2","caus_thomas_as_v1","3HHRAGRYX86AWAP9OR4L2ON7RDVO98","3","1","3","0","0","2184","2017-09-13 18:03:52","1588"
"A39E9936894TJR","caus_thomas_as_v1","3OVR4I9USPKCKGWDM90YAL7RKM04Q1","8","3","2","0","1","96048","2017-09-13 18:04:33","1589"
"A39E9936894TJR","caus_thomas_as_v1","3OVR4I9USPKCKGWDM90YAL7RKM04Q1","8","1","3","0","0","10641","2017-09-13 18:04:44","1590"
"A3FAH5S2RGZ5AK","caus_thomas_as_v1","34BBWHLWHACBCKREJ718WBZWD5HIWX","4","1","0","0","0","5354","2017-09-13 18:05:58","1591"
"A3FAH5S2RGZ5AK","caus_thomas_as_v1","34BBWHLWHACBCKREJ718WBZWD5HIWX","6","0","1","1","0","3912","2017-09-13 18:06:03","1592"
"A3FAH5S2RGZ5AK","caus_thomas_as_v1","34BBWHLWHACBCKREJ718WBZWD5HIWX","1","2","2","1","1","3397","2017-09-13 18:06:07","1593"
"A3FAH5S2RGZ5AK","caus_thomas_as_v1","34BBWHLWHACBCKREJ718WBZWD5HIWX","4","3","3","0","1","3370","2017-09-13 18:06:11","1594"
"A3SNUAW9KXRV94","caus_thomas_as_v1","30H4UDGLT2J7OUK4S0L5WAYH1HZPMQ","7","1","0","0","0","36637","2017-09-13 18:09:37","1595"
"A3SNUAW9KXRV94","caus_thomas_as_v1","30H4UDGLT2J7OUK4S0L5WAYH1HZPMQ","7","2","1","1","1","27913","2017-09-13 18:10:06","1596"
"A3SNUAW9KXRV94","caus_thomas_as_v1","30H4UDGLT2J7OUK4S0L5WAYH1HZPMQ","7","3","2","0","1","17029","2017-09-13 18:10:24","1597"
"A2CEUCPDECS6U3","caus_thomas_as_v1","3R2PKQ87NW9F78X0F5VLNDX5F33IM6","0","2","0","1","1","19425","2017-09-13 18:10:34","1598"
"A3SNUAW9KXRV94","caus_thomas_as_v1","30H4UDGLT2J7OUK4S0L5WAYH1HZPMQ","7","0","3","1","0","10904","2017-09-13 18:10:36","1599"
"A2CEUCPDECS6U3","caus_thomas_as_v1","3R2PKQ87NW9F78X0F5VLNDX5F33IM6","6","3","1","0","1","15741","2017-09-13 18:10:50","1600"
"A2B227N1NQYS56","caus_thomas_as_v1","3WAKVUDHUWH1VWLD5GIANYOQE9W7UT","8","3","0","0","1","36080","2017-09-13 18:10:57","1601"
"A2CEUCPDECS6U3","caus_thomas_as_v1","3R2PKQ87NW9F78X0F5VLNDX5F33IM6","0","0","2","1","0","6756","2017-09-13 18:10:58","1602"
"A2CEUCPDECS6U3","caus_thomas_as_v1","3R2PKQ87NW9F78X0F5VLNDX5F33IM6","0","1","3","0","0","10310","2017-09-13 18:11:10","1603"
"A2B227N1NQYS56","caus_thomas_as_v1","3WAKVUDHUWH1VWLD5GIANYOQE9W7UT","0","1","1","0","0","29135","2017-09-13 18:11:27","1604"
"A2B227N1NQYS56","caus_thomas_as_v1","3WAKVUDHUWH1VWLD5GIANYOQE9W7UT","0","0","2","1","0","11301","2017-09-13 18:11:40","1605"
"A2B227N1NQYS56","caus_thomas_as_v1","3WAKVUDHUWH1VWLD5GIANYOQE9W7UT","0","2","3","1","1","7967","2017-09-13 18:11:49","1606"
"A2BW6WD7LZ9EGV","caus_thomas_as_v1","34QN5IT0TZSPFOEGHEWWCRWE94X80D","4","2","0","1","1","10877","2017-09-13 18:14:16","1607"
"A2BW6WD7LZ9EGV","caus_thomas_as_v1","34QN5IT0TZSPFOEGHEWWCRWE94X80D","6","3","1","0","1","27147","2017-09-13 18:14:45","1608"
"A2BW6WD7LZ9EGV","caus_thomas_as_v1","34QN5IT0TZSPFOEGHEWWCRWE94X80D","7","1","2","0","0","4740","2017-09-13 18:14:50","1609"
"A2BW6WD7LZ9EGV","caus_thomas_as_v1","34QN5IT0TZSPFOEGHEWWCRWE94X80D","4","0","3","1","0","4069","2017-09-13 18:14:55","1610"
"AVQGY7FCU80XP","caus_thomas_as_v1","3M68NM076H8QB4FRICIDC91ACZD6RU","6","3","0","0","1","43664","2017-09-13 18:16:35","1611"
"AVQGY7FCU80XP","caus_thomas_as_v1","3M68NM076H8QB4FRICIDC91ACZD6RU","2","2","1","1","1","22123","2017-09-13 18:16:58","1612"
"AVQGY7FCU80XP","caus_thomas_as_v1","3M68NM076H8QB4FRICIDC91ACZD6RU","1","0","2","1","0","16414","2017-09-13 18:17:15","1613"
"AVQGY7FCU80XP","caus_thomas_as_v1","3M68NM076H8QB4FRICIDC91ACZD6RU","6","1","3","0","0","10062","2017-09-13 18:17:26","1614"
"A2MFQ11WV445GC","caus_thomas_as_v1","3OUYGIZWR7ZALGDX3VY7YDR4YE2P0J","8","3","0","0","1","57670","2017-09-13 18:21:47","1615"
