"subject","version","assignmentId","rating","question_ind","trial_ind","focal_high","alt_high","rt","stamp","id"
"A1SIUJEL2LS8UO","caus_thomas_as_v2","3C44YUNSI1Q4K0ERF7M2DKBNS7FDPC","8","2","0","1","1","29378","2017-09-14 13:03:35","1636"
"A1J8A9WI6QYTVJ","caus_thomas_as_v2","3SPJ0334214BW06KGQ4WT9ZC1WFYJ5","4","1","0","0","0","3082","2017-09-14 13:03:42","1637"
"A1J8A9WI6QYTVJ","caus_thomas_as_v2","3SPJ0334214BW06KGQ4WT9ZC1WFYJ5","4","2","1","1","1","1518","2017-09-14 13:03:45","1638"
"A1J8A9WI6QYTVJ","caus_thomas_as_v2","3SPJ0334214BW06KGQ4WT9ZC1WFYJ5","5","3","2","0","1","1799","2017-09-14 13:03:48","1639"
"A142ZRU284W9O","caus_thomas_as_v2","3HRMW88U16R40DGKBF6FH9X9TDVM0W","6","1","0","0","0","17962","2017-09-14 13:03:48","1640"
"A1J8A9WI6QYTVJ","caus_thomas_as_v2","3SPJ0334214BW06KGQ4WT9ZC1WFYJ5","5","0","3","1","0","1889","2017-09-14 13:03:50","1641"
"AQY83XO3E149M","caus_thomas_as_v2","3SBEHTYCWN4F1PMEY8JWH8KCOHQYIT","5","0","0","1","0","27031","2017-09-14 13:03:51","1642"
"A142ZRU284W9O","caus_thomas_as_v2","3HRMW88U16R40DGKBF6FH9X9TDVM0W","6","3","1","0","1","6384","2017-09-14 13:03:55","1643"
"A23H7XNZHF8JQY","caus_thomas_as_v2","33SA9F9TRXVZWFPSNOBHBW14LGJWEJ","1","3","0","0","1","35339","2017-09-14 13:03:57","1644"
"A1SIUJEL2LS8UO","caus_thomas_as_v2","3C44YUNSI1Q4K0ERF7M2DKBNS7FDPC","1","0","1","1","0","22487","2017-09-14 13:03:59","1645"
"A142ZRU284W9O","caus_thomas_as_v2","3HRMW88U16R40DGKBF6FH9X9TDVM0W","6","0","2","1","0","4430","2017-09-14 13:04:01","1646"
"AQY83XO3E149M","caus_thomas_as_v2","3SBEHTYCWN4F1PMEY8JWH8KCOHQYIT","6","1","1","0","0","10203","2017-09-14 13:04:03","1647"
"A23H7XNZHF8JQY","caus_thomas_as_v2","33SA9F9TRXVZWFPSNOBHBW14LGJWEJ","2","2","1","1","1","10599","2017-09-14 13:04:08","1648"
"A1SIUJEL2LS8UO","caus_thomas_as_v2","3C44YUNSI1Q4K0ERF7M2DKBNS7FDPC","6","3","2","0","1","11411","2017-09-14 13:04:11","1649"
"A2WWCLNBO1B1KZ","caus_thomas_as_v2","39O5D9O87TTN8J3QHDUKGBQ42BC3CR","6","2","0","1","1","61142","2017-09-14 13:04:13","1650"
"A3ANNQ73J8M158","caus_thomas_as_v2","3ZGVPD4G6TI5FTCUO6KJ9MVN5SATZW","4","1","0","0","0","10682","2017-09-14 13:04:13","1651"
"A23H7XNZHF8JQY","caus_thomas_as_v2","33SA9F9TRXVZWFPSNOBHBW14LGJWEJ","1","1","2","0","0","4796","2017-09-14 13:04:14","1652"
"ADGE1P244LWYU","caus_thomas_as_v2","39OWYR0EPKSVRYKOX0DBEB7K8PYYF2","5","1","0","0","0","35013","2017-09-14 13:04:14","1653"
"A3GOI327COFGY5","caus_thomas_as_v2","3S96KQ6I9M52CS7YWOVMIUCKHA0DTH","8","2","0","1","1","25310","2017-09-14 13:04:16","1654"
"A142ZRU284W9O","caus_thomas_as_v2","3HRMW88U16R40DGKBF6FH9X9TDVM0W","6","2","3","1","1","15654","2017-09-14 13:04:18","1655"
"A23H7XNZHF8JQY","caus_thomas_as_v2","33SA9F9TRXVZWFPSNOBHBW14LGJWEJ","3","0","3","1","0","2702","2017-09-14 13:04:18","1656"
"AQY83XO3E149M","caus_thomas_as_v2","3SBEHTYCWN4F1PMEY8JWH8KCOHQYIT","3","2","2","1","1","14816","2017-09-14 13:04:18","1657"
"A1SIUJEL2LS8UO","caus_thomas_as_v2","3C44YUNSI1Q4K0ERF7M2DKBNS7FDPC","6","1","3","0","0","6486","2017-09-14 13:04:19","1658"
"A1BPBUD67XIJXM","caus_thomas_as_v2","3XC1O3LBOSNLA4VQ95TA17KPQJ2TLD","7","0","0","1","0","54737","2017-09-14 13:04:20","1659"
"AQY83XO3E149M","caus_thomas_as_v2","3SBEHTYCWN4F1PMEY8JWH8KCOHQYIT","6","3","3","0","1","8989","2017-09-14 13:04:28","1660"
"ADGE1P244LWYU","caus_thomas_as_v2","39OWYR0EPKSVRYKOX0DBEB7K8PYYF2","6","3","1","0","1","14731","2017-09-14 13:04:30","1661"
"AIUKV0KVALMY6","caus_thomas_as_v2","38JBBYETQOBNND68DI5YG4ID1NKE4F","5","2","0","1","1","36216","2017-09-14 13:04:30","1662"
"A3ANNQ73J8M158","caus_thomas_as_v2","3ZGVPD4G6TI5FTCUO6KJ9MVN5SATZW","4","2","1","1","1","15934","2017-09-14 13:04:30","1663"
"A3E3OELJKHW58C","caus_thomas_as_v2","31N2WW6R9RRUBVN08FKLOHB7ZO43F2","0","1","0","0","0","46322","2017-09-14 13:04:32","1664"
"A2UIHBB5MDLLSV","caus_thomas_as_v2","33CKWXB73JL7BDFDECRHBMSG0U7117","4","0","0","1","0","57555","2017-09-14 13:04:41","1665"
"A1SWPK57MQMMSO","caus_thomas_as_v2","3WEV0KO0OMT1XSUJ7OQW8PGYFRMDSS","7","1","0","0","0","63465","2017-09-14 13:04:42","1666"
"AIUKV0KVALMY6","caus_thomas_as_v2","38JBBYETQOBNND68DI5YG4ID1NKE4F","4","1","1","0","0","10988","2017-09-14 13:04:42","1667"
"A3GOI327COFGY5","caus_thomas_as_v2","3S96KQ6I9M52CS7YWOVMIUCKHA0DTH","6","3","1","0","1","26301","2017-09-14 13:04:43","1668"
"ADGE1P244LWYU","caus_thomas_as_v2","39OWYR0EPKSVRYKOX0DBEB7K8PYYF2","5","2","2","1","1","14036","2017-09-14 13:04:45","1669"
"A3ANNQ73J8M158","caus_thomas_as_v2","3ZGVPD4G6TI5FTCUO6KJ9MVN5SATZW","2","3","2","0","1","17004","2017-09-14 13:04:48","1670"
"A2WWCLNBO1B1KZ","caus_thomas_as_v2","39O5D9O87TTN8J3QHDUKGBQ42BC3CR","1","0","1","1","0","35013","2017-09-14 13:04:49","1671"
"A3GAQNTZ1V1VO","caus_thomas_as_v2","3IOEN3P9S7K2IZGAKI3Y6IJX85N61A","6","1","0","0","0","30058","2017-09-14 13:04:49","1672"
"A1BPBUD67XIJXM","caus_thomas_as_v2","3XC1O3LBOSNLA4VQ95TA17KPQJ2TLD","2","3","1","0","1","27966","2017-09-14 13:04:49","1673"
"A15FXOOCN5RT0","caus_thomas_as_v2","3TXD01ZLD4I4C93U3IK3KM4GNBEU4C","0","1","0","0","0","29909","2017-09-14 13:04:50","1674"
"A389LTO1Q8DAKN","caus_thomas_as_v2","3ZDAD0O1T1EGAYCFNOWYC1FCXSCTXZ","0","0","0","1","0","57616","2017-09-14 13:04:50","1675"
"A2C9CDKYOV3R3C","caus_thomas_as_v2","3IX2EGZR7BK2ZZUY2VC2LD6FY90RJW","7","3","0","0","1","34278","2017-09-14 13:04:52","1676"
"A35BY30TC8WCL4","caus_thomas_as_v2","3EWIJTFFVO86OPO7UHIW41S0KB4E0Z","6","1","0","0","0","46436","2017-09-14 13:04:54","1677"
"A3GOI327COFGY5","caus_thomas_as_v2","3S96KQ6I9M52CS7YWOVMIUCKHA0DTH","4","0","2","1","0","12231","2017-09-14 13:04:56","1678"
"ADGE1P244LWYU","caus_thomas_as_v2","39OWYR0EPKSVRYKOX0DBEB7K8PYYF2","5","0","3","1","0","10421","2017-09-14 13:04:57","1679"
"A3ANNQ73J8M158","caus_thomas_as_v2","3ZGVPD4G6TI5FTCUO6KJ9MVN5SATZW","0","0","3","1","0","8123","2017-09-14 13:04:57","1680"
"A3E3OELJKHW58C","caus_thomas_as_v2","31N2WW6R9RRUBVN08FKLOHB7ZO43F2","0","3","1","0","1","24937","2017-09-14 13:04:58","1681"
"A1BPBUD67XIJXM","caus_thomas_as_v2","3XC1O3LBOSNLA4VQ95TA17KPQJ2TLD","7","2","2","1","1","8613","2017-09-14 13:04:59","1682"
"A2WWCLNBO1B1KZ","caus_thomas_as_v2","39O5D9O87TTN8J3QHDUKGBQ42BC3CR","1","1","2","0","0","11669","2017-09-14 13:05:02","1683"
"A25T92H4YKP4RN","caus_thomas_as_v2","37QW5D2ZRGNPGXYSQGFGMX2X40Q8SI","0","0","0","1","0","19221","2017-09-14 13:05:02","1684"
"A2UIHBB5MDLLSV","caus_thomas_as_v2","33CKWXB73JL7BDFDECRHBMSG0U7117","4","1","1","0","0","21930","2017-09-14 13:05:04","1685"
"A1SWPK57MQMMSO","caus_thomas_as_v2","3WEV0KO0OMT1XSUJ7OQW8PGYFRMDSS","7","3","1","0","1","20932","2017-09-14 13:05:04","1686"
"AIUKV0KVALMY6","caus_thomas_as_v2","38JBBYETQOBNND68DI5YG4ID1NKE4F","2","3","2","0","1","21086","2017-09-14 13:05:04","1687"
"ANOXV36AE49EO","caus_thomas_as_v2","3ZAK8W07I4FNDLLTKHX18JE36ZYU0W","7","3","0","0","1","33558","2017-09-14 13:05:05","1688"
"A35BY30TC8WCL4","caus_thomas_as_v2","3EWIJTFFVO86OPO7UHIW41S0KB4E0Z","5","2","1","1","1","9829","2017-09-14 13:05:05","1689"
"A2U3723LKNMHAI","caus_thomas_as_v2","3KAKFY4PGU3ELMPQ9NQ6REOZFGW3IT","1","1","0","0","0","64359","2017-09-14 13:05:05","1690"
"A1B1JQW3W13ODO","caus_thomas_as_v2","3KXIR214I4HVSXUSKYAXE39O4KV424","3","0","0","1","0","20677","2017-09-14 13:05:06","1691"
"A1G187YBG0DVMQ","caus_thomas_as_v2","3I0BTBYZAXM4UU5YUIUQB4KG2NA0Y1","4","2","0","1","1","16707","2017-09-14 13:05:09","1692"
"A3GOI327COFGY5","caus_thomas_as_v2","3S96KQ6I9M52CS7YWOVMIUCKHA0DTH","6","1","3","0","0","12539","2017-09-14 13:05:10","1693"
"A2E6YPCJHJOLRD
","caus_thomas_as_v2","3PEIJLRY6TU82FG9IT19ZLMB1MUWXS","7","3","0","0","1","19764","2017-09-14 13:05:10","1694"
"A1PF01FF85HUY4","caus_thomas_as_v2","351SEKWQS0IYZXHENRUAWGHSN24MDP","6","1","0","0","0","27343","2017-09-14 13:05:11","1695"
"A15FXOOCN5RT0","caus_thomas_as_v2","3TXD01ZLD4I4C93U3IK3KM4GNBEU4C","0","0","1","1","0","20865","2017-09-14 13:05:12","1696"
"AQHEHXSUXXYYH","caus_thomas_as_v2","35GCEFQ6I5P0GCE09RESR9RPBTY3ZQ","4","0","0","1","0","27248","2017-09-14 13:05:13","1697"
"A2C9CDKYOV3R3C","caus_thomas_as_v2","3IX2EGZR7BK2ZZUY2VC2LD6FY90RJW","4","0","1","1","0","22083","2017-09-14 13:05:15","1698"
"A3GAQNTZ1V1VO","caus_thomas_as_v2","3IOEN3P9S7K2IZGAKI3Y6IJX85N61A","5","0","1","1","0","25569","2017-09-14 13:05:16","1699"
"A35BY30TC8WCL4","caus_thomas_as_v2","3EWIJTFFVO86OPO7UHIW41S0KB4E0Z","5","3","2","0","1","9834","2017-09-14 13:05:16","1700"
"A3E3OELJKHW58C","caus_thomas_as_v2","31N2WW6R9RRUBVN08FKLOHB7ZO43F2","0","0","2","1","0","17229","2017-09-14 13:05:17","1701"
"A1B1JQW3W13ODO","caus_thomas_as_v2","3KXIR214I4HVSXUSKYAXE39O4KV424","5","1","1","0","0","9387","2017-09-14 13:05:17","1702"
"A1BPBUD67XIJXM","caus_thomas_as_v2","3XC1O3LBOSNLA4VQ95TA17KPQJ2TLD","5","1","3","0","0","17775","2017-09-14 13:05:18","1703"
"A25T92H4YKP4RN","caus_thomas_as_v2","37QW5D2ZRGNPGXYSQGFGMX2X40Q8SI","0","2","1","1","1","14458","2017-09-14 13:05:18","1704"
"A1G187YBG0DVMQ","caus_thomas_as_v2","3I0BTBYZAXM4UU5YUIUQB4KG2NA0Y1","8","3","1","0","1","8205","2017-09-14 13:05:18","1705"
"A2E6YPCJHJOLRD
","caus_thomas_as_v2","3PEIJLRY6TU82FG9IT19ZLMB1MUWXS","7","1","1","0","0","7548","2017-09-14 13:05:19","1706"
"A15FXOOCN5RT0","caus_thomas_as_v2","3TXD01ZLD4I4C93U3IK3KM4GNBEU4C","0","2","2","1","1","6536","2017-09-14 13:05:19","1707"
"A389LTO1Q8DAKN","caus_thomas_as_v2","3ZDAD0O1T1EGAYCFNOWYC1FCXSCTXZ","3","3","1","0","1","28093","2017-09-14 13:05:19","1708"
"A1SWPK57MQMMSO","caus_thomas_as_v2","3WEV0KO0OMT1XSUJ7OQW8PGYFRMDSS","7","0","2","1","0","16353","2017-09-14 13:05:21","1709"
"A2T007HZK66WM","caus_thomas_as_v2","3B837J3LDOXVY2DOPPLGDEX2USDRSC","4","1","0","0","0","35113","2017-09-14 13:05:22","1710"
"A2UIHBB5MDLLSV","caus_thomas_as_v2","33CKWXB73JL7BDFDECRHBMSG0U7117","4","2","2","1","1","17480","2017-09-14 13:05:22","1711"
"A25T92H4YKP4RN","caus_thomas_as_v2","37QW5D2ZRGNPGXYSQGFGMX2X40Q8SI","0","1","2","0","0","3365","2017-09-14 13:05:22","1712"
"A1G187YBG0DVMQ","caus_thomas_as_v2","3I0BTBYZAXM4UU5YUIUQB4KG2NA0Y1","5","0","2","1","0","3459","2017-09-14 13:05:22","1713"
"ANOXV36AE49EO","caus_thomas_as_v2","3ZAK8W07I4FNDLLTKHX18JE36ZYU0W","4","0","1","1","0","16623","2017-09-14 13:05:22","1714"
"A2E6YPCJHJOLRD
","caus_thomas_as_v2","3PEIJLRY6TU82FG9IT19ZLMB1MUWXS","7","0","2","1","0","4230","2017-09-14 13:05:24","1715"
"A1B1JQW3W13ODO","caus_thomas_as_v2","3KXIR214I4HVSXUSKYAXE39O4KV424","6","3","2","0","1","7505","2017-09-14 13:05:25","1716"
"A1PF01FF85HUY4","caus_thomas_as_v2","351SEKWQS0IYZXHENRUAWGHSN24MDP","5","0","1","1","0","14042","2017-09-14 13:05:26","1717"
"A25T92H4YKP4RN","caus_thomas_as_v2","37QW5D2ZRGNPGXYSQGFGMX2X40Q8SI","8","3","3","0","1","3870","2017-09-14 13:05:27","1718"
"A15FXOOCN5RT0","caus_thomas_as_v2","3TXD01ZLD4I4C93U3IK3KM4GNBEU4C","0","3","3","0","1","8467","2017-09-14 13:05:29","1719"
"A1G187YBG0DVMQ","caus_thomas_as_v2","3I0BTBYZAXM4UU5YUIUQB4KG2NA0Y1","6","1","3","0","0","5945","2017-09-14 13:05:29","1720"
"A1ILOQZ922TXTW","caus_thomas_as_v2","3RSDURM96AN3LKKS2PT5WTMKWOJYEK","1","0","0","1","0","49660","2017-09-14 13:05:30","1721"
"A3GAQNTZ1V1VO","caus_thomas_as_v2","3IOEN3P9S7K2IZGAKI3Y6IJX85N61A","7","3","2","0","1","13008","2017-09-14 13:05:30","1722"
"A2WWCLNBO1B1KZ","caus_thomas_as_v2","39O5D9O87TTN8J3QHDUKGBQ42BC3CR","6","3","3","0","1","27618","2017-09-14 13:05:30","1723"
"ANOXV36AE49EO","caus_thomas_as_v2","3ZAK8W07I4FNDLLTKHX18JE36ZYU0W","7","1","2","0","0","7913","2017-09-14 13:05:31","1724"
"A2ZTXC0WB8DPJP","caus_thomas_as_v2","3X0H8UUIT1P06YUAOJVM0D5JM7SWSK","6","2","0","1","1","61599","2017-09-14 13:05:32","1725"
"A2VDGWD0BBMSP2","caus_thomas_as_v2","3GD6L00D3SY472127YAFVEGJY51M1Z","7","3","0","0","1","97331","2017-09-14 13:05:33","1726"
"A2E6YPCJHJOLRD
","caus_thomas_as_v2","3PEIJLRY6TU82FG9IT19ZLMB1MUWXS","7","2","3","1","1","8768","2017-09-14 13:05:34","1727"
"A1B1JQW3W13ODO","caus_thomas_as_v2","3KXIR214I4HVSXUSKYAXE39O4KV424","1","2","3","1","1","7858","2017-09-14 13:05:34","1728"
"A2C9CDKYOV3R3C","caus_thomas_as_v2","3IX2EGZR7BK2ZZUY2VC2LD6FY90RJW","1","1","2","0","0","18258","2017-09-14 13:05:34","1729"
"A2U3723LKNMHAI","caus_thomas_as_v2","3KAKFY4PGU3ELMPQ9NQ6REOZFGW3IT","1","2","1","1","1","28305","2017-09-14 13:05:35","1730"
"A1SWPK57MQMMSO","caus_thomas_as_v2","3WEV0KO0OMT1XSUJ7OQW8PGYFRMDSS","7","2","3","1","1","12585","2017-09-14 13:05:35","1731"
"AQHEHXSUXXYYH","caus_thomas_as_v2","35GCEFQ6I5P0GCE09RESR9RPBTY3ZQ","4","2","1","1","1","21147","2017-09-14 13:05:36","1732"
"A389LTO1Q8DAKN","caus_thomas_as_v2","3ZDAD0O1T1EGAYCFNOWYC1FCXSCTXZ","1","2","2","1","1","16163","2017-09-14 13:05:36","1733"
"A3E3OELJKHW58C","caus_thomas_as_v2","31N2WW6R9RRUBVN08FKLOHB7ZO43F2","0","2","3","1","1","19326","2017-09-14 13:05:37","1734"
"A2UIHBB5MDLLSV","caus_thomas_as_v2","33CKWXB73JL7BDFDECRHBMSG0U7117","4","3","3","0","1","15300","2017-09-14 13:05:38","1735"
"ANOXV36AE49EO","caus_thomas_as_v2","3ZAK8W07I4FNDLLTKHX18JE36ZYU0W","4","2","3","1","1","6961","2017-09-14 13:05:39","1736"
"A1PF01FF85HUY4","caus_thomas_as_v2","351SEKWQS0IYZXHENRUAWGHSN24MDP","5","2","2","1","1","13049","2017-09-14 13:05:40","1737"
"AIUKV0KVALMY6","caus_thomas_as_v2","38JBBYETQOBNND68DI5YG4ID1NKE4F","2","0","3","1","0","35289","2017-09-14 13:05:40","1738"
"A3GAQNTZ1V1VO","caus_thomas_as_v2","3IOEN3P9S7K2IZGAKI3Y6IJX85N61A","4","2","3","1","1","10897","2017-09-14 13:05:42","1739"
"A3105BXK85QUS7","caus_thomas_as_v2","3M0NZ3JDP1Z3UR14NA2L66P9PPP5ZI","3","0","0","1","0","98817","2017-09-14 13:05:42","1740"
"A11IYGHTR4XIGR","caus_thomas_as_v2","3O6CYIULED2GLBMEDOQMFEN774DWU0","0","1","0","0","0","47045","2017-09-14 13:05:47","1741"
"ACVEFRSUAPSEQ","caus_thomas_as_v2","37C0GNLMHF4WAUWM0BNT7KK6X2Q6D0","8","1","0","0","0","23836","2017-09-14 13:05:47","1742"
"A389LTO1Q8DAKN","caus_thomas_as_v2","3ZDAD0O1T1EGAYCFNOWYC1FCXSCTXZ","3","1","3","0","0","10144","2017-09-14 13:05:47","1743"
"A2T007HZK66WM","caus_thomas_as_v2","3B837J3LDOXVY2DOPPLGDEX2USDRSC","4","2","1","1","1","25450","2017-09-14 13:05:48","1744"
"A35BY30TC8WCL4","caus_thomas_as_v2","3EWIJTFFVO86OPO7UHIW41S0KB4E0Z","6","0","3","1","0","32074","2017-09-14 13:05:49","1745"
"A1PF01FF85HUY4","caus_thomas_as_v2","351SEKWQS0IYZXHENRUAWGHSN24MDP","6","3","3","0","1","8687","2017-09-14 13:05:50","1746"
"A1ILOQZ922TXTW","caus_thomas_as_v2","3RSDURM96AN3LKKS2PT5WTMKWOJYEK","3","1","1","0","0","19995","2017-09-14 13:05:51","1747"
"A2ZTXC0WB8DPJP","caus_thomas_as_v2","3X0H8UUIT1P06YUAOJVM0D5JM7SWSK","2","3","1","0","1","20305","2017-09-14 13:05:54","1748"
"AELOYBHVZFDW9","caus_thomas_as_v2","34BBWHLWHACBCKREJ718WBZWD9QWIS","4","2","0","1","1","50085","2017-09-14 13:05:54","1749"
"A2C9CDKYOV3R3C","caus_thomas_as_v2","3IX2EGZR7BK2ZZUY2VC2LD6FY90RJW","3","2","3","1","1","22708","2017-09-14 13:05:58","1750"
"A2T007HZK66WM","caus_thomas_as_v2","3B837J3LDOXVY2DOPPLGDEX2USDRSC","4","0","2","1","0","9164","2017-09-14 13:05:59","1751"
"A2VDGWD0BBMSP2","caus_thomas_as_v2","3GD6L00D3SY472127YAFVEGJY51M1Z","4","2","1","1","1","26338","2017-09-14 13:06:00","1752"
"A3105BXK85QUS7","caus_thomas_as_v2","3M0NZ3JDP1Z3UR14NA2L66P9PPP5ZI","1","1","1","0","0","17765","2017-09-14 13:06:01","1753"
"A1ILOQZ922TXTW","caus_thomas_as_v2","3RSDURM96AN3LKKS2PT5WTMKWOJYEK","3","3","2","0","1","10189","2017-09-14 13:06:02","1754"
"ACVEFRSUAPSEQ","caus_thomas_as_v2","37C0GNLMHF4WAUWM0BNT7KK6X2Q6D0","8","3","1","0","1","14547","2017-09-14 13:06:02","1755"
"AG3F3A5X321XS","caus_thomas_as_v2","37Q970SNZE975XE7RV617NFPQUK1SR","4","3","0","0","1","35482","2017-09-14 13:06:03","1756"
"A1FJAVZWHRQ4HH","caus_thomas_as_v2","3DQQ64TANGM3T6EIW2RS5808ZNLWP4","7","3","0","0","1","28644","2017-09-14 13:06:03","1757"
"A11IYGHTR4XIGR","caus_thomas_as_v2","3O6CYIULED2GLBMEDOQMFEN774DWU0","0","3","1","0","1","20580","2017-09-14 13:06:08","1758"
"AELOYBHVZFDW9","caus_thomas_as_v2","34BBWHLWHACBCKREJ718WBZWD9QWIS","6","1","1","0","0","14675","2017-09-14 13:06:10","1759"
"A2ZTXC0WB8DPJP","caus_thomas_as_v2","3X0H8UUIT1P06YUAOJVM0D5JM7SWSK","2","1","2","0","0","15217","2017-09-14 13:06:10","1760"
"A2T007HZK66WM","caus_thomas_as_v2","3B837J3LDOXVY2DOPPLGDEX2USDRSC","4","3","3","0","1","11754","2017-09-14 13:06:11","1761"
"A3105BXK85QUS7","caus_thomas_as_v2","3M0NZ3JDP1Z3UR14NA2L66P9PPP5ZI","2","3","2","0","1","10196","2017-09-14 13:06:12","1762"
"A1V0RDWOXP8N7","caus_thomas_as_v2","3OXV7EAXLERYS2UP7MHHUBYU6P1632","7","1","0","0","0","62360","2017-09-14 13:06:14","1763"
"A2VDGWD0BBMSP2","caus_thomas_as_v2","3GD6L00D3SY472127YAFVEGJY51M1Z","5","0","2","1","0","13755","2017-09-14 13:06:15","1764"
"A1FJAVZWHRQ4HH","caus_thomas_as_v2","3DQQ64TANGM3T6EIW2RS5808ZNLWP4","4","0","1","1","0","11310","2017-09-14 13:06:15","1765"
"ACVEFRSUAPSEQ","caus_thomas_as_v2","37C0GNLMHF4WAUWM0BNT7KK6X2Q6D0","8","2","2","1","1","11994","2017-09-14 13:06:15","1766"
"A15O8OTD2TSJ12","caus_thomas_as_v2","3LKC68YZ3A4L862HH2EDG8VIPIPOWF","8","1","0","0","0","41360","2017-09-14 13:06:16","1767"
"A2ZTXC0WB8DPJP","caus_thomas_as_v2","3X0H8UUIT1P06YUAOJVM0D5JM7SWSK","7","0","3","1","0","6130","2017-09-14 13:06:17","1768"
"A2OPV173ISAT0D","caus_thomas_as_v2","34MAJL3QP4OKDFQBOYO2XDEGAYV43F","6","1","0","0","0","70489","2017-09-14 13:06:17","1769"
"AELOYBHVZFDW9","caus_thomas_as_v2","34BBWHLWHACBCKREJ718WBZWD9QWIS","4","0","2","1","0","9303","2017-09-14 13:06:20","1770"
"AG3F3A5X321XS","caus_thomas_as_v2","37Q970SNZE975XE7RV617NFPQUK1SR","4","1","1","0","0","16709","2017-09-14 13:06:20","1771"
"A1ILOQZ922TXTW","caus_thomas_as_v2","3RSDURM96AN3LKKS2PT5WTMKWOJYEK","1","2","3","1","1","18616","2017-09-14 13:06:21","1772"
"A2U3723LKNMHAI","caus_thomas_as_v2","3KAKFY4PGU3ELMPQ9NQ6REOZFGW3IT","1","3","2","0","1","47968","2017-09-14 13:06:24","1773"
"A11IYGHTR4XIGR","caus_thomas_as_v2","3O6CYIULED2GLBMEDOQMFEN774DWU0","0","0","2","1","0","15469","2017-09-14 13:06:25","1774"
"A1FJAVZWHRQ4HH","caus_thomas_as_v2","3DQQ64TANGM3T6EIW2RS5808ZNLWP4","4","2","2","1","1","10740","2017-09-14 13:06:27","1775"
"A2UHMLMFCP9J72","caus_thomas_as_v2","3Y9N9SS8LYCXDB94H9PV0H8MNBO3DR","8","3","0","0","1","20246","2017-09-14 13:06:28","1776"
"ACVEFRSUAPSEQ","caus_thomas_as_v2","37C0GNLMHF4WAUWM0BNT7KK6X2Q6D0","8","0","3","1","0","11614","2017-09-14 13:06:28","1777"
"A1JRNNCMEW631Z","caus_thomas_as_v2","3QUO65DNQUP8G2DCM2ZCYKAL42EUOM","8","3","0","0","1","36645","2017-09-14 13:06:28","1778"
"A3UXLYTQ0G27JB","caus_thomas_as_v2","3PH3VY7DJLYX7AGOJBPUW62M9MSWZP","2","1","0","0","0","58958","2017-09-14 13:06:29","1779"
"A2VDGWD0BBMSP2","caus_thomas_as_v2","3GD6L00D3SY472127YAFVEGJY51M1Z","7","1","3","0","0","12602","2017-09-14 13:06:29","1780"
"A18V3RFUE8SU7R","caus_thomas_as_v2","3SUWZRL0MYE120AMW6YDD22RXER6ET","0","0","0","1","0","39949","2017-09-14 13:06:29","1781"
"A3105BXK85QUS7","caus_thomas_as_v2","3M0NZ3JDP1Z3UR14NA2L66P9PPP5ZI","2","2","3","1","1","16711","2017-09-14 13:06:30","1782"
"A28S6TTII9JDNI","caus_thomas_as_v2","3LEIZ60CDJ0MVE3GQ0F2IMUBBL7Z92","4","0","0","1","0","24877","2017-09-14 13:06:30","1783"
"A1V0RDWOXP8N7","caus_thomas_as_v2","3OXV7EAXLERYS2UP7MHHUBYU6P1632","8","3","1","0","1","18299","2017-09-14 13:06:33","1784"
"AELOYBHVZFDW9","caus_thomas_as_v2","34BBWHLWHACBCKREJ718WBZWD9QWIS","7","3","3","0","1","12059","2017-09-14 13:06:33","1785"
"AF82BCZ2TDPH6","caus_thomas_as_v2","3YDGXNSEOZV6ECWH0FJYOUMRQKN487","7","3","0","0","1","45181","2017-09-14 13:06:35","1786"
"A1PAY3X73PQ16S","caus_thomas_as_v2","3S06PH7KSR5138VPU5BCCOTPPRA1DX","1","0","0","1","0","33666","2017-09-14 13:06:36","1787"
"A2OPV173ISAT0D","caus_thomas_as_v2","34MAJL3QP4OKDFQBOYO2XDEGAYV43F","7","3","1","0","1","17686","2017-09-14 13:06:36","1788"
"A28S6TTII9JDNI","caus_thomas_as_v2","3LEIZ60CDJ0MVE3GQ0F2IMUBBL7Z92","4","2","1","1","1","6142","2017-09-14 13:06:37","1789"
"AG3F3A5X321XS","caus_thomas_as_v2","37Q970SNZE975XE7RV617NFPQUK1SR","1","2","2","1","1","16370","2017-09-14 13:06:38","1790"
"A11IYGHTR4XIGR","caus_thomas_as_v2","3O6CYIULED2GLBMEDOQMFEN774DWU0","0","2","3","1","1","13230","2017-09-14 13:06:39","1791"
"A2UHMLMFCP9J72","caus_thomas_as_v2","3Y9N9SS8LYCXDB94H9PV0H8MNBO3DR","6","1","1","0","0","11589","2017-09-14 13:06:40","1792"
"A15O8OTD2TSJ12","caus_thomas_as_v2","3LKC68YZ3A4L862HH2EDG8VIPIPOWF","8","3","1","0","1","25788","2017-09-14 13:06:43","1793"
"A1FJAVZWHRQ4HH","caus_thomas_as_v2","3DQQ64TANGM3T6EIW2RS5808ZNLWP4","6","1","3","0","0","15094","2017-09-14 13:06:43","1794"
"A28S6TTII9JDNI","caus_thomas_as_v2","3LEIZ60CDJ0MVE3GQ0F2IMUBBL7Z92","4","1","2","0","0","5589","2017-09-14 13:06:44","1795"
"A1V0RDWOXP8N7","caus_thomas_as_v2","3OXV7EAXLERYS2UP7MHHUBYU6P1632","4","2","2","1","1","11236","2017-09-14 13:06:45","1796"
"A2AVNKU60T23OQ","caus_thomas_as_v2","3LOZAJ85YDEMQZI249C2BE6MXFZX2B","7","3","0","0","1","91764","2017-09-14 13:06:46","1797"
"A2UHMLMFCP9J72","caus_thomas_as_v2","3Y9N9SS8LYCXDB94H9PV0H8MNBO3DR","3","0","2","1","0","4653","2017-09-14 13:06:46","1798"
"AVCLG9XDXN0JV","caus_thomas_as_v2","3YWRV122CS05VAQWFLAG1YKLPXAU8J","7","0","0","1","0","36877","2017-09-14 13:06:50","1799"
"A2UHMLMFCP9J72","caus_thomas_as_v2","3Y9N9SS8LYCXDB94H9PV0H8MNBO3DR","2","2","3","1","1","3301","2017-09-14 13:06:50","1800"
"AHPOUVK6YUTK1","caus_thomas_as_v2","3NPFYT4IZC5C5TQ93OXRDI0N7Y4XGU","2","0","0","1","0","38179","2017-09-14 13:06:51","1801"
"AF82BCZ2TDPH6","caus_thomas_as_v2","3YDGXNSEOZV6ECWH0FJYOUMRQKN487","5","0","1","1","0","14800","2017-09-14 13:06:51","1802"
"A28S6TTII9JDNI","caus_thomas_as_v2","3LEIZ60CDJ0MVE3GQ0F2IMUBBL7Z92","6","3","3","0","1","6796","2017-09-14 13:06:52","1803"
"A3UXLYTQ0G27JB","caus_thomas_as_v2","3PH3VY7DJLYX7AGOJBPUW62M9MSWZP","0","3","1","0","1","22460","2017-09-14 13:06:52","1804"
"A22NOME8P61FM4
","caus_thomas_as_v2","30LB5CDZNCB4ZKF3Q4W9PBTI8HE0ZS","8","0","0","1","0","34606","2017-09-14 13:06:53","1805"
"A1JRNNCMEW631Z","caus_thomas_as_v2","3QUO65DNQUP8G2DCM2ZCYKAL42EUOM","5","0","1","1","0","24210","2017-09-14 13:06:54","1806"
"A1PAY3X73PQ16S","caus_thomas_as_v2","3S06PH7KSR5138VPU5BCCOTPPRA1DX","4","1","1","0","0","19527","2017-09-14 13:06:56","1807"
"A2OPV173ISAT0D","caus_thomas_as_v2","34MAJL3QP4OKDFQBOYO2XDEGAYV43F","3","0","2","1","0","19561","2017-09-14 13:06:57","1808"
"A1I9ZBV75AVWUS","caus_thomas_as_v2","3JV9LGBJWTFPBKCH2XAVU59UVUZOGG","5","1","0","0","0","20337","2017-09-14 13:07:00","1809"
"AZ57C58RDAMJF","caus_thomas_as_v2","386CSBG1OZNQZ30R5XTD7JR5GHF6Q5","7","0","0","1","0","33101","2017-09-14 13:07:02","1810"
"A1V0RDWOXP8N7","caus_thomas_as_v2","3OXV7EAXLERYS2UP7MHHUBYU6P1632","4","0","3","1","0","16229","2017-09-14 13:07:02","1811"
"AF82BCZ2TDPH6","caus_thomas_as_v2","3YDGXNSEOZV6ECWH0FJYOUMRQKN487","7","1","2","0","0","10853","2017-09-14 13:07:03","1812"
"AG3F3A5X321XS","caus_thomas_as_v2","37Q970SNZE975XE7RV617NFPQUK1SR","6","0","3","1","0","25066","2017-09-14 13:07:04","1813"
"A22NOME8P61FM4
","caus_thomas_as_v2","30LB5CDZNCB4ZKF3Q4W9PBTI8HE0ZS","7","1","1","0","0","10691","2017-09-14 13:07:05","1814"
"A2U3723LKNMHAI","caus_thomas_as_v2","3KAKFY4PGU3ELMPQ9NQ6REOZFGW3IT","1","0","3","1","0","40256","2017-09-14 13:07:05","1815"
"A1I9ZBV75AVWUS","caus_thomas_as_v2","3JV9LGBJWTFPBKCH2XAVU59UVUZOGG","6","0","1","1","0","4275","2017-09-14 13:07:05","1816"
"A25SNFXNG34KBP","caus_thomas_as_v2","3NAPMVF0ZWGSBKCBMW84HFTYVML27M","1","1","0","0","0","11932","2017-09-14 13:07:07","1817"
"A15O8OTD2TSJ12","caus_thomas_as_v2","3LKC68YZ3A4L862HH2EDG8VIPIPOWF","8","0","2","1","0","23118","2017-09-14 13:07:07","1818"
"A2AVNKU60T23OQ","caus_thomas_as_v2","3LOZAJ85YDEMQZI249C2BE6MXFZX2B","5","1","1","0","0","21336","2017-09-14 13:07:08","1819"
"A1PAY3X73PQ16S","caus_thomas_as_v2","3S06PH7KSR5138VPU5BCCOTPPRA1DX","5","3","2","0","1","10762","2017-09-14 13:07:08","1820"
"A2OPV173ISAT0D","caus_thomas_as_v2","34MAJL3QP4OKDFQBOYO2XDEGAYV43F","3","2","3","1","1","10831","2017-09-14 13:07:08","1821"
"A3NUIEPMZSHEZ4","caus_thomas_as_v2","3A7Y0R2P2OPMWVGABUIUAVS3ZQLXJY","8","3","0","0","1","30871","2017-09-14 13:07:09","1822"
"A3UXLYTQ0G27JB","caus_thomas_as_v2","3PH3VY7DJLYX7AGOJBPUW62M9MSWZP","0","2","2","1","1","17277","2017-09-14 13:07:10","1823"
"A1I9ZBV75AVWUS","caus_thomas_as_v2","3JV9LGBJWTFPBKCH2XAVU59UVUZOGG","6","3","2","0","1","4405","2017-09-14 13:07:11","1824"
"A25SNFXNG34KBP","caus_thomas_as_v2","3NAPMVF0ZWGSBKCBMW84HFTYVML27M","4","3","1","0","1","3803","2017-09-14 13:07:11","1825"
"AVCLG9XDXN0JV","caus_thomas_as_v2","3YWRV122CS05VAQWFLAG1YKLPXAU8J","7","2","1","1","1","22281","2017-09-14 13:07:13","1826"
"A18V3RFUE8SU7R","caus_thomas_as_v2","3SUWZRL0MYE120AMW6YDD22RXER6ET","7","1","1","0","0","43703","2017-09-14 13:07:14","1827"
"A25SNFXNG34KBP","caus_thomas_as_v2","3NAPMVF0ZWGSBKCBMW84HFTYVML27M","2","0","2","1","0","1602","2017-09-14 13:07:14","1828"
"A1JRNNCMEW631Z","caus_thomas_as_v2","3QUO65DNQUP8G2DCM2ZCYKAL42EUOM","4","2","2","1","1","19452","2017-09-14 13:07:14","1829"
"A1I9ZBV75AVWUS","caus_thomas_as_v2","3JV9LGBJWTFPBKCH2XAVU59UVUZOGG","6","2","3","1","1","3268","2017-09-14 13:07:15","1830"
"A1I3F99BZ6PWUN","caus_thomas_as_v2","3GU1KF0O4I2B53G71BVWIUNNPM4BP4","5","0","0","1","0","25980","2017-09-14 13:07:16","1831"
"A2531UD0IGT731","caus_thomas_as_v2","3V5Q80FXIXSAA1BOKK5E4YHIQKZ23H","7","1","0","0","0","40603","2017-09-14 13:07:16","1832"
"A25SNFXNG34KBP","caus_thomas_as_v2","3NAPMVF0ZWGSBKCBMW84HFTYVML27M","4","2","3","1","1","1654","2017-09-14 13:07:17","1833"
"A9KZGRERDRYHH","caus_thomas_as_v2","3EO896NRAWWFFE7Q6KHXLS7XMUYJT2","5","0","0","1","0","26522","2017-09-14 13:07:17","1834"
"A33BSYMO96ZPKF
","caus_thomas_as_v2","308XBLVESI5WHGWME3ZLNPN2Q4SBRW","4","1","0","0","0","33172","2017-09-14 13:07:19","1835"
"AHPOUVK6YUTK1","caus_thomas_as_v2","3NPFYT4IZC5C5TQ93OXRDI0N7Y4XGU","3","1","1","0","0","27707","2017-09-14 13:07:19","1836"
"A1PAY3X73PQ16S","caus_thomas_as_v2","3S06PH7KSR5138VPU5BCCOTPPRA1DX","2","2","3","1","1","10257","2017-09-14 13:07:20","1837"
"AF82BCZ2TDPH6","caus_thomas_as_v2","3YDGXNSEOZV6ECWH0FJYOUMRQKN487","1","2","3","1","1","17584","2017-09-14 13:07:21","1838"
"ATBGHQ2VYNIVZ","caus_thomas_as_v2","3IHR8NYAM72RK4VYMWL9AGHHFUMP4B","4","0","0","1","0","42259","2017-09-14 13:07:23","1839"
"AVCLG9XDXN0JV","caus_thomas_as_v2","3YWRV122CS05VAQWFLAG1YKLPXAU8J","7","3","2","0","1","10269","2017-09-14 13:07:24","1840"
"AZ57C58RDAMJF","caus_thomas_as_v2","386CSBG1OZNQZ30R5XTD7JR5GHF6Q5","1","3","1","0","1","21928","2017-09-14 13:07:25","1841"
"A1JRNNCMEW631Z","caus_thomas_as_v2","3QUO65DNQUP8G2DCM2ZCYKAL42EUOM","8","1","3","0","0","10811","2017-09-14 13:07:26","1842"
"A15O8OTD2TSJ12","caus_thomas_as_v2","3LKC68YZ3A4L862HH2EDG8VIPIPOWF","8","2","3","1","1","18728","2017-09-14 13:07:27","1843"
"A1W6NTSBP1FIL0","caus_thomas_as_v2","34PGFRQONOC77VBK1PM88CEWQOGJWS","0","1","0","0","0","12727","2017-09-14 13:07:29","1844"
"ATBGHQ2VYNIVZ","caus_thomas_as_v2","3IHR8NYAM72RK4VYMWL9AGHHFUMP4B","4","3","1","0","1","5548","2017-09-14 13:07:29","1845"
"A2AVNKU60T23OQ","caus_thomas_as_v2","3LOZAJ85YDEMQZI249C2BE6MXFZX2B","4","2","2","1","1","21365","2017-09-14 13:07:30","1846"
"A2SY4E7MRC15MM","caus_thomas_as_v2","3M68NM076H8QB4FRICIDC91AC3H6R6","4","2","0","1","1","47706","2017-09-14 13:07:31","1847"
"A33BSYMO96ZPKF
","caus_thomas_as_v2","308XBLVESI5WHGWME3ZLNPN2Q4SBRW","6","3","1","0","1","11734","2017-09-14 13:07:31","1848"
"A1I3F99BZ6PWUN","caus_thomas_as_v2","3GU1KF0O4I2B53G71BVWIUNNPM4BP4","7","3","1","0","1","14541","2017-09-14 13:07:31","1849"
"A18V3RFUE8SU7R","caus_thomas_as_v2","3SUWZRL0MYE120AMW6YDD22RXER6ET","6","2","2","1","1","17292","2017-09-14 13:07:32","1850"
"A3NUIEPMZSHEZ4","caus_thomas_as_v2","3A7Y0R2P2OPMWVGABUIUAVS3ZQLXJY","7","1","1","0","0","21732","2017-09-14 13:07:32","1851"
"A22NOME8P61FM4
","caus_thomas_as_v2","30LB5CDZNCB4ZKF3Q4W9PBTI8HE0ZS","8","3","2","0","1","26754","2017-09-14 13:07:32","1852"
"A3UXLYTQ0G27JB","caus_thomas_as_v2","3PH3VY7DJLYX7AGOJBPUW62M9MSWZP","3","0","3","1","0","22981","2017-09-14 13:07:34","1853"
"A9KZGRERDRYHH","caus_thomas_as_v2","3EO896NRAWWFFE7Q6KHXLS7XMUYJT2","5","3","1","0","1","16959","2017-09-14 13:07:35","1854"
"A22NOME8P61FM4
","caus_thomas_as_v2","30LB5CDZNCB4ZKF3Q4W9PBTI8HE0ZS","8","2","3","1","1","2850","2017-09-14 13:07:36","1855"
"AVCLG9XDXN0JV","caus_thomas_as_v2","3YWRV122CS05VAQWFLAG1YKLPXAU8J","6","1","3","0","0","13321","2017-09-14 13:07:39","1856"
"A1W6NTSBP1FIL0","caus_thomas_as_v2","34PGFRQONOC77VBK1PM88CEWQOGJWS","5","2","1","1","1","9639","2017-09-14 13:07:39","1857"
"ATBGHQ2VYNIVZ","caus_thomas_as_v2","3IHR8NYAM72RK4VYMWL9AGHHFUMP4B","4","1","2","0","0","9223","2017-09-14 13:07:40","1858"
"A1I3F99BZ6PWUN","caus_thomas_as_v2","3GU1KF0O4I2B53G71BVWIUNNPM4BP4","7","1","2","0","0","7328","2017-09-14 13:07:40","1859"
"AZ57C58RDAMJF","caus_thomas_as_v2","386CSBG1OZNQZ30R5XTD7JR5GHF6Q5","1","1","2","0","0","14908","2017-09-14 13:07:41","1860"
"A33BSYMO96ZPKF
","caus_thomas_as_v2","308XBLVESI5WHGWME3ZLNPN2Q4SBRW","4","0","2","1","0","9289","2017-09-14 13:07:41","1861"
"AHPOUVK6YUTK1","caus_thomas_as_v2","3NPFYT4IZC5C5TQ93OXRDI0N7Y4XGU","4","3","2","0","1","21830","2017-09-14 13:07:42","1862"
"A3RBTKUE595EH7","caus_thomas_as_v2","38YMOXR4MU0VJ0WDH6SJZ89R4IW6W9","0","1","0","0","0","10197","2017-09-14 13:07:43","1863"
"AO9YO8LW3AWGC","caus_thomas_as_v2","352YTHGROVEZ7NXA3JD417FQT3D4HM","0","3","0","0","1","27991","2017-09-14 13:07:44","1864"
"A1I3F99BZ6PWUN","caus_thomas_as_v2","3GU1KF0O4I2B53G71BVWIUNNPM4BP4","-1","2","3","1","1","3627","2017-09-14 13:07:44","1865"
"ATBGHQ2VYNIVZ","caus_thomas_as_v2","3IHR8NYAM72RK4VYMWL9AGHHFUMP4B","4","2","3","1","1","4099","2017-09-14 13:07:45","1866"
"A2AVNKU60T23OQ","caus_thomas_as_v2","3LOZAJ85YDEMQZI249C2BE6MXFZX2B","4","0","3","1","0","13317","2017-09-14 13:07:45","1867"
"A2SY4E7MRC15MM","caus_thomas_as_v2","3M68NM076H8QB4FRICIDC91AC3H6R6","6","1","1","0","0","14052","2017-09-14 13:07:46","1868"
"A3NUIEPMZSHEZ4","caus_thomas_as_v2","3A7Y0R2P2OPMWVGABUIUAVS3ZQLXJY","1","2","2","1","1","12546","2017-09-14 13:07:46","1869"
"A1PTBCPAYANOYE","caus_thomas_as_v2","36WLNQG78ZB78CRHSXFLOIOJBF2EBM","4","1","0","0","0","42492","2017-09-14 13:07:46","1870"
"A2M3KQ9CKP7YW","caus_thomas_as_v2","35H6S234SA116HHTL55A98WEKLS65S","3","2","0","1","1","36542","2017-09-14 13:07:49","1871"
"A9KZGRERDRYHH","caus_thomas_as_v2","3EO896NRAWWFFE7Q6KHXLS7XMUYJT2","5","2","2","1","1","13129","2017-09-14 13:07:49","1872"
"A330N7LVL2IOVZ","caus_thomas_as_v2","3PWWM24LHSZWBYHUW10AVFPT66R289","1","3","0","0","1","41609","2017-09-14 13:07:50","1873"
"AZ57C58RDAMJF","caus_thomas_as_v2","386CSBG1OZNQZ30R5XTD7JR5GHF6Q5","1","2","3","1","1","9832","2017-09-14 13:07:52","1874"
"A3NUIEPMZSHEZ4","caus_thomas_as_v2","3A7Y0R2P2OPMWVGABUIUAVS3ZQLXJY","4","0","3","1","0","5553","2017-09-14 13:07:52","1875"
"A1W6NTSBP1FIL0","caus_thomas_as_v2","34PGFRQONOC77VBK1PM88CEWQOGJWS","6","3","2","0","1","12392","2017-09-14 13:07:53","1876"
"A3RBTKUE595EH7","caus_thomas_as_v2","38YMOXR4MU0VJ0WDH6SJZ89R4IW6W9","1","2","1","1","1","9489","2017-09-14 13:07:54","1877"
"A2SOKKU8ZSBTFY
","caus_thomas_as_v2","3R9WASFE2ZHVWOUTTMFUSIGMEJ2ZFU","8","1","0","0","0","35239","2017-09-14 13:07:54","1878"
"A33BSYMO96ZPKF
","caus_thomas_as_v2","308XBLVESI5WHGWME3ZLNPN2Q4SBRW","3","2","3","1","1","12080","2017-09-14 13:07:55","1879"
"A2531UD0IGT731","caus_thomas_as_v2","3V5Q80FXIXSAA1BOKK5E4YHIQKZ23H","1","2","1","1","1","38019","2017-09-14 13:07:55","1880"
"A147I0K984NT1E","caus_thomas_as_v2","3IQ1VMJRYTLLU6V8E8Z31T322019AC","3","0","0","1","0","25819","2017-09-14 13:07:56","1881"
"AHPOUVK6YUTK1","caus_thomas_as_v2","3NPFYT4IZC5C5TQ93OXRDI0N7Y4XGU","1","2","3","1","1","13399","2017-09-14 13:07:56","1882"
"A2541C8MY0BYV3","caus_thomas_as_v2","3ND9UOO81K3D2LZK4AYLORROUDKLWV","5","3","0","0","1","9005","2017-09-14 13:07:57","1883"
"A134Z0KUOMR8CW","caus_thomas_as_v2","3WLEIWSYHOIP49INZ5UG8SIS9PHH23","0","3","0","0","1","38049","2017-09-14 13:07:57","1884"
"AQHEHXSUXXYYH","caus_thomas_as_v2","35GCEFQ6I5P0GCE09RESR9RPBTY3ZQ","4","3","2","0","1","140568","2017-09-14 13:07:57","1885"
"A301GGK0MOB5QD","caus_thomas_as_v2","3MYYFCXHJ38L7R2ZJDVMG73PE304GN","5","1","0","0","0","32276","2017-09-14 13:07:57","1886"
"A2SY4E7MRC15MM","caus_thomas_as_v2","3M68NM076H8QB4FRICIDC91AC3H6R6","7","3","2","0","1","11485","2017-09-14 13:07:58","1887"
"A2VE5IV9OD2SK1","caus_thomas_as_v2","3JW0YLFXRTHTDFBJ8O5NX284SKOWWZ","4","3","0","0","1","135603","2017-09-14 13:07:59","1888"
"A1W6NTSBP1FIL0","caus_thomas_as_v2","34PGFRQONOC77VBK1PM88CEWQOGJWS","1","0","3","1","0","5246","2017-09-14 13:07:59","1889"
"AUDH0P4ZHJKS2","caus_thomas_as_v2","3BQU611VFPL7PNL3M2L35YSIWIJ99X","0","0","0","1","0","13912","2017-09-14 13:07:59","1890"
"A3RBTKUE595EH7","caus_thomas_as_v2","38YMOXR4MU0VJ0WDH6SJZ89R4IW6W9","4","0","2","1","0","5628","2017-09-14 13:08:00","1891"
"A1N9ARF16GH31S","caus_thomas_as_v2","3M81GAB8A0KW5FHM1OALIZDXUIQBQV","8","1","0","0","0","84094","2017-09-14 13:08:01","1892"
"A147I0K984NT1E","caus_thomas_as_v2","3IQ1VMJRYTLLU6V8E8Z31T322019AC","5","1","1","0","0","4194","2017-09-14 13:08:02","1893"
"A18V3RFUE8SU7R","caus_thomas_as_v2","3SUWZRL0MYE120AMW6YDD22RXER6ET","6","3","3","0","1","29793","2017-09-14 13:08:03","1894"
"AUDH0P4ZHJKS2","caus_thomas_as_v2","3BQU611VFPL7PNL3M2L35YSIWIJ99X","0","1","1","0","0","3509","2017-09-14 13:08:04","1895"
"A330N7LVL2IOVZ","caus_thomas_as_v2","3PWWM24LHSZWBYHUW10AVFPT66R289","1","2","1","1","1","13823","2017-09-14 13:08:05","1896"
"A147I0K984NT1E","caus_thomas_as_v2","3IQ1VMJRYTLLU6V8E8Z31T322019AC","4","2","2","1","1","3034","2017-09-14 13:08:06","1897"
"A2541C8MY0BYV3","caus_thomas_as_v2","3ND9UOO81K3D2LZK4AYLORROUDKLWV","3","1","1","0","0","8095","2017-09-14 13:08:06","1898"
"A3RBTKUE595EH7","caus_thomas_as_v2","38YMOXR4MU0VJ0WDH6SJZ89R4IW6W9","0","3","3","0","1","6092","2017-09-14 13:08:07","1899"
"A2SY4E7MRC15MM","caus_thomas_as_v2","3M68NM076H8QB4FRICIDC91AC3H6R6","4","0","3","1","0","8765","2017-09-14 13:08:08","1900"
"A9KZGRERDRYHH","caus_thomas_as_v2","3EO896NRAWWFFE7Q6KHXLS7XMUYJT2","2","1","3","0","0","17707","2017-09-14 13:08:08","1901"
"AUDH0P4ZHJKS2","caus_thomas_as_v2","3BQU611VFPL7PNL3M2L35YSIWIJ99X","0","2","2","1","1","3618","2017-09-14 13:08:08","1902"
"A2M3KQ9CKP7YW","caus_thomas_as_v2","35H6S234SA116HHTL55A98WEKLS65S","3","3","1","0","1","18969","2017-09-14 13:08:09","1903"
"A147I0K984NT1E","caus_thomas_as_v2","3IQ1VMJRYTLLU6V8E8Z31T322019AC","4","3","3","0","1","2003","2017-09-14 13:08:09","1904"
"AO9YO8LW3AWGC","caus_thomas_as_v2","352YTHGROVEZ7NXA3JD417FQT3D4HM","0","2","1","1","1","24520","2017-09-14 13:08:09","1905"
"A2SOKKU8ZSBTFY
","caus_thomas_as_v2","3R9WASFE2ZHVWOUTTMFUSIGMEJ2ZFU","8","2","1","1","1","14404","2017-09-14 13:08:10","1906"
"AJ1VMW9NT7287","caus_thomas_as_v2","3W8CV64QJ2004T3MKE9VIFQ6FVRH9V","6","2","0","1","1","32115","2017-09-14 13:08:10","1907"
"A2531UD0IGT731","caus_thomas_as_v2","3V5Q80FXIXSAA1BOKK5E4YHIQKZ23H","7","3","2","0","1","14626","2017-09-14 13:08:11","1908"
"A1OSRAPSRT934Z","caus_thomas_as_v2","3OE22WJIGIPB1EQS1FRGNP5LJ3WUQU","5","3","0","0","1","43159","2017-09-14 13:08:11","1909"
"AUDH0P4ZHJKS2","caus_thomas_as_v2","3BQU611VFPL7PNL3M2L35YSIWIJ99X","0","3","3","0","1","2111","2017-09-14 13:08:11","1910"
"A2541C8MY0BYV3","caus_thomas_as_v2","3ND9UOO81K3D2LZK4AYLORROUDKLWV","2","0","2","1","0","5722","2017-09-14 13:08:13","1911"
"AQHEHXSUXXYYH","caus_thomas_as_v2","35GCEFQ6I5P0GCE09RESR9RPBTY3ZQ","6","1","3","0","0","15319","2017-09-14 13:08:13","1912"
"A2VE5IV9OD2SK1","caus_thomas_as_v2","3JW0YLFXRTHTDFBJ8O5NX284SKOWWZ","5","2","1","1","1","15733","2017-09-14 13:08:15","1913"
"A2541C8MY0BYV3","caus_thomas_as_v2","3ND9UOO81K3D2LZK4AYLORROUDKLWV","4","2","3","1","1","3460","2017-09-14 13:08:17","1914"
"A1PTBCPAYANOYE","caus_thomas_as_v2","36WLNQG78ZB78CRHSXFLOIOJBF2EBM","4","0","1","1","0","29945","2017-09-14 13:08:17","1915"
"AO9YO8LW3AWGC","caus_thomas_as_v2","352YTHGROVEZ7NXA3JD417FQT3D4HM","0","1","2","0","0","7060","2017-09-14 13:08:17","1916"
"A2SOKKU8ZSBTFY
","caus_thomas_as_v2","3R9WASFE2ZHVWOUTTMFUSIGMEJ2ZFU","8","0","2","1","0","7573","2017-09-14 13:08:18","1917"
"A2V3P1XE33NYC3","caus_thomas_as_v2","3YZ8UPK3VTN77DG9WXQL3KG4FOVUCP","8","3","0","0","1","23629","2017-09-14 13:08:19","1918"
"A134Z0KUOMR8CW","caus_thomas_as_v2","3WLEIWSYHOIP49INZ5UG8SIS9PHH23","0","1","1","0","0","20729","2017-09-14 13:08:19","1919"
"A301GGK0MOB5QD","caus_thomas_as_v2","3MYYFCXHJ38L7R2ZJDVMG73PE304GN","4","2","1","1","1","20679","2017-09-14 13:08:19","1920"
"A2M3KQ9CKP7YW","caus_thomas_as_v2","35H6S234SA116HHTL55A98WEKLS65S","3","0","2","1","0","16187","2017-09-14 13:08:26","1921"
"AO9YO8LW3AWGC","caus_thomas_as_v2","352YTHGROVEZ7NXA3JD417FQT3D4HM","0","0","3","1","0","7814","2017-09-14 13:08:26","1922"
"A330N7LVL2IOVZ","caus_thomas_as_v2","3PWWM24LHSZWBYHUW10AVFPT66R289","0","1","2","0","0","20155","2017-09-14 13:08:26","1923"
"A134Z0KUOMR8CW","caus_thomas_as_v2","3WLEIWSYHOIP49INZ5UG8SIS9PHH23","0","2","2","1","1","8313","2017-09-14 13:08:28","1924"
"A2VE5IV9OD2SK1","caus_thomas_as_v2","3JW0YLFXRTHTDFBJ8O5NX284SKOWWZ","4","1","2","0","0","12730","2017-09-14 13:08:29","1925"
"AJ1VMW9NT7287","caus_thomas_as_v2","3W8CV64QJ2004T3MKE9VIFQ6FVRH9V","5","3","1","0","1","19104","2017-09-14 13:08:30","1926"
"A1OSRAPSRT934Z","caus_thomas_as_v2","3OE22WJIGIPB1EQS1FRGNP5LJ3WUQU","1","2","1","1","1","18245","2017-09-14 13:08:31","1927"
"A2531UD0IGT731","caus_thomas_as_v2","3V5Q80FXIXSAA1BOKK5E4YHIQKZ23H","6","0","3","1","0","18946","2017-09-14 13:08:31","1928"
"A2SOKKU8ZSBTFY
","caus_thomas_as_v2","3R9WASFE2ZHVWOUTTMFUSIGMEJ2ZFU","8","3","3","0","1","15159","2017-09-14 13:08:34","1929"
"A2AX54JH2WED4O","caus_thomas_as_v2","3PDJHANYK5HDMA1OM76JY5Z4PUJ6H9","8","0","0","1","0","67111","2017-09-14 13:08:35","1930"
"A1USDMJVT10CE4","caus_thomas_as_v2","3OF2M9AATGP6CAM7UX6R8V8RMFJZKW","6","3","0","0","1","9065","2017-09-14 13:08:37","1931"
"A301GGK0MOB5QD","caus_thomas_as_v2","3MYYFCXHJ38L7R2ZJDVMG73PE304GN","4","0","2","1","0","17385","2017-09-14 13:08:37","1932"
"A3CMGKHSBTC2XQ","caus_thomas_as_v2","3Z4AIRP3C6EF1E06L5CO6VWH59M1XZ","1","3","0","0","1","138839","2017-09-14 13:08:38","1933"
"A330N7LVL2IOVZ","caus_thomas_as_v2","3PWWM24LHSZWBYHUW10AVFPT66R289","0","0","3","1","0","12165","2017-09-14 13:08:39","1934"
"A2M3KQ9CKP7YW","caus_thomas_as_v2","35H6S234SA116HHTL55A98WEKLS65S","3","1","3","0","0","13440","2017-09-14 13:08:40","1935"
"A1PTBCPAYANOYE","caus_thomas_as_v2","36WLNQG78ZB78CRHSXFLOIOJBF2EBM","3","2","2","1","1","22788","2017-09-14 13:08:41","1936"
"A1O67YS3DU0ZHX","caus_thomas_as_v2","3ZAK8W07I4FNDLLTKHX18JE36ZZ0U3","8","0","0","1","0","93028","2017-09-14 13:08:41","1937"
"A1USDMJVT10CE4","caus_thomas_as_v2","3OF2M9AATGP6CAM7UX6R8V8RMFJZKW","6","2","1","1","1","3875","2017-09-14 13:08:42","1938"
"A1OSRAPSRT934Z","caus_thomas_as_v2","3OE22WJIGIPB1EQS1FRGNP5LJ3WUQU","4","0","2","1","0","13117","2017-09-14 13:08:45","1939"
"A2VE5IV9OD2SK1","caus_thomas_as_v2","3JW0YLFXRTHTDFBJ8O5NX284SKOWWZ","4","0","3","1","0","15315","2017-09-14 13:08:45","1940"
"A3CMGKHSBTC2XQ","caus_thomas_as_v2","3Z4AIRP3C6EF1E06L5CO6VWH59M1XZ","1","1","1","0","0","7920","2017-09-14 13:08:47","1941"
"A1USDMJVT10CE4","caus_thomas_as_v2","3OF2M9AATGP6CAM7UX6R8V8RMFJZKW","4","0","2","1","0","4610","2017-09-14 13:08:48","1942"
"A134Z0KUOMR8CW","caus_thomas_as_v2","3WLEIWSYHOIP49INZ5UG8SIS9PHH23","0","0","3","1","0","18601","2017-09-14 13:08:48","1943"
"A35SC4D5YNJGOW","caus_thomas_as_v2","3Z7VU45IPYI4690LMN093GCSD9JZ1T","6","2","0","1","1","44792","2017-09-14 13:08:48","1944"
"A301GGK0MOB5QD","caus_thomas_as_v2","3MYYFCXHJ38L7R2ZJDVMG73PE304GN","6","3","3","0","1","10572","2017-09-14 13:08:49","1945"
"A1USDMJVT10CE4","caus_thomas_as_v2","3OF2M9AATGP6CAM7UX6R8V8RMFJZKW","4","1","3","0","0","1607","2017-09-14 13:08:50","1946"
"A219UJNV7ZMMQ2","caus_thomas_as_v2","3WYP994K17SZ85RDW7A7K5U7FQW6Y8","0","0","0","1","0","43382","2017-09-14 13:08:51","1947"
"A320BT7PLIQVZT","caus_thomas_as_v2","3TYCR1GOTCKHWG4PFXISNVL6BFOZLZ","6","1","0","0","0","22195","2017-09-14 13:08:53","1948"
"A3CMGKHSBTC2XQ","caus_thomas_as_v2","3Z4AIRP3C6EF1E06L5CO6VWH59M1XZ","4","2","2","1","1","6606","2017-09-14 13:08:55","1949"
"A2W5Q0IVJUS7Y6","caus_thomas_as_v2","3GA6AFUKOOPEPRE6358LR2NKF3HH3E","0","2","0","1","1","52825","2017-09-14 13:08:56","1950"
"AJ1VMW9NT7287","caus_thomas_as_v2","3W8CV64QJ2004T3MKE9VIFQ6FVRH9V","4","0","2","1","0","26264","2017-09-14 13:08:57","1951"
" A1QTXDVUDSAMG2
 A1QTXDVUDSAMG2
","caus_thomas_as_v2","3OCHAWUVGOLH7FMSTFI6BASGEFLXKX","8","2","0","1","1","80317","2017-09-14 13:08:57","1952"
"A320BT7PLIQVZT","caus_thomas_as_v2","3TYCR1GOTCKHWG4PFXISNVL6BFOZLZ","5","0","1","1","0","4130","2017-09-14 13:08:58","1953"
"A1PTBCPAYANOYE","caus_thomas_as_v2","36WLNQG78ZB78CRHSXFLOIOJBF2EBM","4","3","3","0","1","16711","2017-09-14 13:08:59","1954"
"A3CMGKHSBTC2XQ","caus_thomas_as_v2","3Z4AIRP3C6EF1E06L5CO6VWH59M1XZ","4","0","3","1","0","3188","2017-09-14 13:08:59","1955"
"A1OSRAPSRT934Z","caus_thomas_as_v2","3OE22WJIGIPB1EQS1FRGNP5LJ3WUQU","5","1","3","0","0","13503","2017-09-14 13:08:59","1956"
"A320BT7PLIQVZT","caus_thomas_as_v2","3TYCR1GOTCKHWG4PFXISNVL6BFOZLZ","4","2","2","1","1","1125","2017-09-14 13:09:00","1957"
"A33B85TN97HQ33","caus_thomas_as_v2","3BEFOD78W6ULZ1YLUGTHTCNMAPC4MV","7","3","0","0","1","28865","2017-09-14 13:09:01","1958"
"A320BT7PLIQVZT","caus_thomas_as_v2","3TYCR1GOTCKHWG4PFXISNVL6BFOZLZ","4","3","3","0","1","1001","2017-09-14 13:09:02","1959"
"A1H49IS4NJB5I4","caus_thomas_as_v2","3U84XHCDICELY8X495JB1EJVPTTZ46","4","2","0","1","1","2117","2017-09-14 13:09:04","1960"
"A35SC4D5YNJGOW","caus_thomas_as_v2","3Z7VU45IPYI4690LMN093GCSD9JZ1T","7","1","1","0","0","19148","2017-09-14 13:09:08","1961"
"AJ1VMW9NT7287","caus_thomas_as_v2","3W8CV64QJ2004T3MKE9VIFQ6FVRH9V","4","1","3","0","0","13732","2017-09-14 13:09:12","1962"
"A33B85TN97HQ33","caus_thomas_as_v2","3BEFOD78W6ULZ1YLUGTHTCNMAPC4MV","4","2","1","1","1","13315","2017-09-14 13:09:15","1963"
"A2WYCY1FMQOD5F","caus_thomas_as_v2","3YGXWBAF70I8QFMUHRZ3QGIAGB8C4L","5","3","0","0","1","6919","2017-09-14 13:09:18","1964"
"A35SC4D5YNJGOW","caus_thomas_as_v2","3Z7VU45IPYI4690LMN093GCSD9JZ1T","7","3","2","0","1","9583","2017-09-14 13:09:18","1965"
"A219UJNV7ZMMQ2","caus_thomas_as_v2","3WYP994K17SZ85RDW7A7K5U7FQW6Y8","0","1","1","0","0","27111","2017-09-14 13:09:19","1966"
"AKN67C89B5QW5","caus_thomas_as_v2","3E4GGUZ1T8SG6ZJV5QXDLKYK16LK2A","4","2","0","1","1","28474","2017-09-14 13:09:20","1967"
"AMSD8C1YGP8F2","caus_thomas_as_v2","3KGTPGBS6XMU9VO7Z41FR77I3XIU2G","5","1","0","0","0","14062","2017-09-14 13:09:20","1968"
"A2N1D2C24N5CHE","caus_thomas_as_v2","3FDJT1UU74985W2IN9ZBJR1WLGCK5B","6","0","0","1","0","29252","2017-09-14 13:09:20","1969"
"AGBIQ958BK5B2","caus_thomas_as_v2","3OVHNO1VE62YY4GX2GK44ID126MZDJ","2","0","0","1","0","47879","2017-09-14 13:09:21","1970"
"A2WYCY1FMQOD5F","caus_thomas_as_v2","3YGXWBAF70I8QFMUHRZ3QGIAGB8C4L","3","0","1","1","0","2580","2017-09-14 13:09:21","1971"
"A2V3P1XE33NYC3","caus_thomas_as_v2","3YZ8UPK3VTN77DG9WXQL3KG4FOVUCP","4","0","1","1","0","61502","2017-09-14 13:09:21","1972"
"A2W5Q0IVJUS7Y6","caus_thomas_as_v2","3GA6AFUKOOPEPRE6358LR2NKF3HH3E","0","1","1","0","0","24967","2017-09-14 13:09:22","1973"
" A1QTXDVUDSAMG2
 A1QTXDVUDSAMG2
","caus_thomas_as_v2","3OCHAWUVGOLH7FMSTFI6BASGEFLXKX","8","3","1","0","1","25342","2017-09-14 13:09:23","1974"
"A2AX54JH2WED4O","caus_thomas_as_v2","3PDJHANYK5HDMA1OM76JY5Z4PUJ6H9","1","1","1","0","0","48398","2017-09-14 13:09:24","1975"
"A3FCQN13WTL05Q
A3FCQN13WTL05Q
A3FCQN13WTL05Q A3FCQN13WTL05Q","caus_thomas_as_v2","39GAF6DQWR1NXPVBLQB6IAZWPYE1VW","8","1","0","0","0","57683","2017-09-14 13:09:25","1976"
"A3TS2NCBAB9L6V","caus_thomas_as_v2","3SLE99ER0NE5J7IDOKTY9SP1ZLBBZP","0","1","0","0","0","33629","2017-09-14 13:09:26","1977"
"A1H7IZ46Q472MG","caus_thomas_as_v2","3C8HJ7UOP7V12YMAF9J7N80VBKEZM1","7","3","0","0","1","28927","2017-09-14 13:09:29","1978"
"A3H0XGON3XVK12","caus_thomas_as_v2","38F5OAUN5NDWQAFT5HBB4JZ0K53H7J","4","1","0","0","0","114805","2017-09-14 13:09:29","1979"
"A33B85TN97HQ33","caus_thomas_as_v2","3BEFOD78W6ULZ1YLUGTHTCNMAPC4MV","4","0","2","1","0","12916","2017-09-14 13:09:29","1980"
"A2N1D2C24N5CHE","caus_thomas_as_v2","3FDJT1UU74985W2IN9ZBJR1WLGCK5B","8","3","1","0","1","8701","2017-09-14 13:09:30","1981"
"AKN67C89B5QW5","caus_thomas_as_v2","3E4GGUZ1T8SG6ZJV5QXDLKYK16LK2A","6","0","1","1","0","9003","2017-09-14 13:09:30","1982"
"A35SC4D5YNJGOW","caus_thomas_as_v2","3Z7VU45IPYI4690LMN093GCSD9JZ1T","7","0","3","1","0","11029","2017-09-14 13:09:31","1983"
"A1Z7QTDFX7ZM2O","caus_thomas_as_v2","3OJSZ2ATDSXKAHVY4FA2FMWAFWC75S","2","0","0","1","0","49928","2017-09-14 13:09:31","1984"
"A2V3P1XE33NYC3","caus_thomas_as_v2","3YZ8UPK3VTN77DG9WXQL3KG4FOVUCP","8","2","2","1","1","8972","2017-09-14 13:09:31","1985"
"A1O67YS3DU0ZHX","caus_thomas_as_v2","3ZAK8W07I4FNDLLTKHX18JE36ZZ0U3","2","2","1","1","1","49387","2017-09-14 13:09:32","1986"
"AMSD8C1YGP8F2","caus_thomas_as_v2","3KGTPGBS6XMU9VO7Z41FR77I3XIU2G","7","3","1","0","1","17099","2017-09-14 13:09:38","1987"
"A2AX54JH2WED4O","caus_thomas_as_v2","3PDJHANYK5HDMA1OM76JY5Z4PUJ6H9","5","2","2","1","1","12985","2017-09-14 13:09:38","1988"
"A3E8INBTGAL58Y","caus_thomas_as_v2","3LJ7UR74RHERHJJL6H8H6RCMFFM4NV","4","1","0","0","0","23862","2017-09-14 13:09:40","1989"
"A2N1D2C24N5CHE","caus_thomas_as_v2","3FDJT1UU74985W2IN9ZBJR1WLGCK5B","5","2","2","1","1","9057","2017-09-14 13:09:40","1990"
"A33B85TN97HQ33","caus_thomas_as_v2","3BEFOD78W6ULZ1YLUGTHTCNMAPC4MV","7","1","3","0","0","10403","2017-09-14 13:09:41","1991"
"A1OGK8NUDNRIFV","caus_thomas_as_v2","3907X2AHF06HHQGBII2LH1KJVGQP2F","0","1","0","0","0","34408","2017-09-14 13:09:41","1992"
" A1QTXDVUDSAMG2
 A1QTXDVUDSAMG2
","caus_thomas_as_v2","3OCHAWUVGOLH7FMSTFI6BASGEFLXKX","8","1","2","0","0","17191","2017-09-14 13:09:42","1993"
"A2V3P1XE33NYC3","caus_thomas_as_v2","3YZ8UPK3VTN77DG9WXQL3KG4FOVUCP","8","1","3","0","0","9535","2017-09-14 13:09:42","1994"
"AKN67C89B5QW5","caus_thomas_as_v2","3E4GGUZ1T8SG6ZJV5QXDLKYK16LK2A","1","3","2","0","1","11572","2017-09-14 13:09:42","1995"
"A2W5Q0IVJUS7Y6","caus_thomas_as_v2","3GA6AFUKOOPEPRE6358LR2NKF3HH3E","0","3","2","0","1","19983","2017-09-14 13:09:43","1996"
"A219UJNV7ZMMQ2","caus_thomas_as_v2","3WYP994K17SZ85RDW7A7K5U7FQW6Y8","4","3","2","0","1","23064","2017-09-14 13:09:43","1997"
"A1O67YS3DU0ZHX","caus_thomas_as_v2","3ZAK8W07I4FNDLLTKHX18JE36ZZ0U3","2","1","2","0","0","11004","2017-09-14 13:09:44","1998"
"A3TS2NCBAB9L6V","caus_thomas_as_v2","3SLE99ER0NE5J7IDOKTY9SP1ZLBBZP","0","0","1","1","0","18699","2017-09-14 13:09:45","1999"
"A1N9ARF16GH31S","caus_thomas_as_v2","3M81GAB8A0KW5FHM1OALIZDXUIQBQV","8","2","1","1","1","104017","2017-09-14 13:09:47","2000"
"AGBIQ958BK5B2","caus_thomas_as_v2","3OVHNO1VE62YY4GX2GK44ID126MZDJ","2","3","1","0","1","25236","2017-09-14 13:09:47","2001"
"A2N1D2C24N5CHE","caus_thomas_as_v2","3FDJT1UU74985W2IN9ZBJR1WLGCK5B","7","1","3","0","0","6590","2017-09-14 13:09:47","2002"
"AQIHP9D5DG5J","caus_thomas_as_v2","37WLF8U1WPR4O02WSS9GBXFWHBNK6R","5","3","0","0","1","24979","2017-09-14 13:09:48","2003"
"AKN67C89B5QW5","caus_thomas_as_v2","3E4GGUZ1T8SG6ZJV5QXDLKYK16LK2A","1","1","3","0","0","5412","2017-09-14 13:09:49","2004"
"AMSD8C1YGP8F2","caus_thomas_as_v2","3KGTPGBS6XMU9VO7Z41FR77I3XIU2G","8","2","2","1","1","10072","2017-09-14 13:09:49","2005"
"A2AX54JH2WED4O","caus_thomas_as_v2","3PDJHANYK5HDMA1OM76JY5Z4PUJ6H9","2","3","3","0","1","10129","2017-09-14 13:09:49","2006"
"A3FCQN13WTL05Q
A3FCQN13WTL05Q
A3FCQN13WTL05Q A3FCQN13WTL05Q","caus_thomas_as_v2","39GAF6DQWR1NXPVBLQB6IAZWPYE1VW","8","0","1","1","0","24324","2017-09-14 13:09:50","2007"
"A1Z7QTDFX7ZM2O","caus_thomas_as_v2","3OJSZ2ATDSXKAHVY4FA2FMWAFWC75S","7","3","1","0","1","19533","2017-09-14 13:09:51","2008"
"A3E8INBTGAL58Y","caus_thomas_as_v2","3LJ7UR74RHERHJJL6H8H6RCMFFM4NV","1","0","1","1","0","11491","2017-09-14 13:09:52","2009"
"A3D46S3V9SYXTT","caus_thomas_as_v2","324G5B4FB39LFA9X794QYR0JYO1707","4","2","0","1","1","26563","2017-09-14 13:09:53","2010"
"A1H7IZ46Q472MG","caus_thomas_as_v2","3C8HJ7UOP7V12YMAF9J7N80VBKEZM1","4","2","1","1","1","24719","2017-09-14 13:09:54","2011"
"A3TS2NCBAB9L6V","caus_thomas_as_v2","3SLE99ER0NE5J7IDOKTY9SP1ZLBBZP","0","2","2","1","1","9756","2017-09-14 13:09:56","2012"
"A1OGK8NUDNRIFV","caus_thomas_as_v2","3907X2AHF06HHQGBII2LH1KJVGQP2F","0","0","1","1","0","14033","2017-09-14 13:09:56","2013"
"AMSD8C1YGP8F2","caus_thomas_as_v2","3KGTPGBS6XMU9VO7Z41FR77I3XIU2G","8","0","3","1","0","6073","2017-09-14 13:09:56","2014"
"A2FBP73AQACKZ2","caus_thomas_as_v2","3OS46CRSLF0I4BW8RWNND6QDX9U6VZ","4","2","0","1","1","36779","2017-09-14 13:09:57","2015"
"A3TBOHEHKXYV6C","caus_thomas_as_v2","3D4CH1LGEAUM4X8B08RDXFE50VE9GO","6","3","0","0","1","55941","2017-09-14 13:09:57","2016"
"A5ALZADPZOH6X","caus_thomas_as_v2","379J5II41OHJLLDTJA4F2LKON9GEL9","1","0","0","1","0","38307","2017-09-14 13:09:57","2017"
"A219UJNV7ZMMQ2","caus_thomas_as_v2","3WYP994K17SZ85RDW7A7K5U7FQW6Y8","4","2","3","1","1","13951","2017-09-14 13:09:58","2018"
" A1QTXDVUDSAMG2
 A1QTXDVUDSAMG2
","caus_thomas_as_v2","3OCHAWUVGOLH7FMSTFI6BASGEFLXKX","8","0","3","1","0","17517","2017-09-14 13:10:00","2019"
"A3D46S3V9SYXTT","caus_thomas_as_v2","324G5B4FB39LFA9X794QYR0JYO1707","2","3","1","0","1","6279","2017-09-14 13:10:01","2020"
"A2W5Q0IVJUS7Y6","caus_thomas_as_v2","3GA6AFUKOOPEPRE6358LR2NKF3HH3E","0","0","3","1","0","17010","2017-09-14 13:10:01","2021"
"AQIHP9D5DG5J","caus_thomas_as_v2","37WLF8U1WPR4O02WSS9GBXFWHBNK6R","5","2","1","1","1","11474","2017-09-14 13:10:01","2022"
"ABSBKX1MUPLYB","caus_thomas_as_v2","3HL8HNGX452GQXCGPOLVFUETZGE9FP","0","3","0","0","1","50070","2017-09-14 13:10:01","2023"
"A3H0XGON3XVK12","caus_thomas_as_v2","38F5OAUN5NDWQAFT5HBB4JZ0K53H7J","4","0","1","1","0","30970","2017-09-14 13:10:01","2024"
"A3D46S3V9SYXTT","caus_thomas_as_v2","324G5B4FB39LFA9X794QYR0JYO1707","1","0","2","1","0","3218","2017-09-14 13:10:05","2025"
"A3TS2NCBAB9L6V","caus_thomas_as_v2","3SLE99ER0NE5J7IDOKTY9SP1ZLBBZP","0","3","3","0","1","8332","2017-09-14 13:10:05","2026"
"A2WYCY1FMQOD5F","caus_thomas_as_v2","3YGXWBAF70I8QFMUHRZ3QGIAGB8C4L","5","2","2","1","1","44857","2017-09-14 13:10:07","2027"
"A3D46S3V9SYXTT","caus_thomas_as_v2","324G5B4FB39LFA9X794QYR0JYO1707","1","1","3","0","0","2314","2017-09-14 13:10:08","2028"
"AQIHP9D5DG5J","caus_thomas_as_v2","37WLF8U1WPR4O02WSS9GBXFWHBNK6R","6","1","2","0","0","7964","2017-09-14 13:10:10","2029"
"A3E8INBTGAL58Y","caus_thomas_as_v2","3LJ7UR74RHERHJJL6H8H6RCMFFM4NV","3","2","2","1","1","16436","2017-09-14 13:10:10","2030"
"A22DDO8NILSX6O","caus_thomas_as_v2","32SCWG5HIH55ZRZC5KEO7E1VBLSP6W","6","3","0","0","1","26304","2017-09-14 13:10:10","2031"
"A2WYCY1FMQOD5F","caus_thomas_as_v2","3YGXWBAF70I8QFMUHRZ3QGIAGB8C4L","3","1","3","0","0","2511","2017-09-14 13:10:11","2032"
"A3FCQN13WTL05Q
A3FCQN13WTL05Q
A3FCQN13WTL05Q A3FCQN13WTL05Q","caus_thomas_as_v2","39GAF6DQWR1NXPVBLQB6IAZWPYE1VW","8","2","2","1","1","20405","2017-09-14 13:10:12","2033"
"A2FBP73AQACKZ2","caus_thomas_as_v2","3OS46CRSLF0I4BW8RWNND6QDX9U6VZ","7","3","1","0","1","14461","2017-09-14 13:10:12","2034"
"AGBIQ958BK5B2","caus_thomas_as_v2","3OVHNO1VE62YY4GX2GK44ID126MZDJ","2","1","2","0","0","24795","2017-09-14 13:10:13","2035"
"A1OGK8NUDNRIFV","caus_thomas_as_v2","3907X2AHF06HHQGBII2LH1KJVGQP2F","0","2","2","1","1","16710","2017-09-14 13:10:14","2036"
"A1Z7QTDFX7ZM2O","caus_thomas_as_v2","3OJSZ2ATDSXKAHVY4FA2FMWAFWC75S","6","2","2","1","1","21583","2017-09-14 13:10:14","2037"
"A37XJVQF62ZYC","caus_thomas_as_v2","3WR9XG3T63C2EYRYQARSAUQWF0H74N","0","0","0","1","0","61314","2017-09-14 13:10:16","2038"
"A5ALZADPZOH6X","caus_thomas_as_v2","379J5II41OHJLLDTJA4F2LKON9GEL9","7","3","1","0","1","17930","2017-09-14 13:10:16","2039"
"A22JBMOHQKHTSS","caus_thomas_as_v2","32Z9ZLUT1LL3BG7SM3SDF5LVAUCOHF","8","2","0","1","1","50894","2017-09-14 13:10:16","2040"
"AQIHP9D5DG5J","caus_thomas_as_v2","37WLF8U1WPR4O02WSS9GBXFWHBNK6R","5","0","3","1","0","6532","2017-09-14 13:10:17","2041"
"A38QZWKGT370RD","caus_thomas_as_v2","3YT88D1N08Z5RHFE9QBI4U3C7KLK3L","5","3","0","0","1","47590","2017-09-14 13:10:19","2042"
"A3E8INBTGAL58Y","caus_thomas_as_v2","3LJ7UR74RHERHJJL6H8H6RCMFFM4NV","3","3","3","0","1","8729","2017-09-14 13:10:20","2043"
"A3BBK5YDUBRKYW","caus_thomas_as_v2","3YMU66OBIN9FJ3QUYKF5AWCTJ8MHGM","4","3","0","0","1","28920","2017-09-14 13:10:20","2044"
"ABSBKX1MUPLYB","caus_thomas_as_v2","3HL8HNGX452GQXCGPOLVFUETZGE9FP","7","0","1","1","0","20501","2017-09-14 13:10:23","2045"
"A22DDO8NILSX6O","caus_thomas_as_v2","32SCWG5HIH55ZRZC5KEO7E1VBLSP6W","5","1","1","0","0","12156","2017-09-14 13:10:23","2046"
"AYAJ2TM7RVTBU","caus_thomas_as_v2","3E4GGUZ1T8SG6ZJV5QXDLKYK16L2KS","5","1","0","0","0","51447","2017-09-14 13:10:24","2047"
"A1OGK8NUDNRIFV","caus_thomas_as_v2","3907X2AHF06HHQGBII2LH1KJVGQP2F","0","3","3","0","1","9070","2017-09-14 13:10:24","2048"
"A2WCYILM19VQEW","caus_thomas_as_v2","30OG32W0SUC99LGEVNKUFDODS4GENB","0","1","0","0","0","51091","2017-09-14 13:10:25","2049"
"A1Z7QTDFX7ZM2O","caus_thomas_as_v2","3OJSZ2ATDSXKAHVY4FA2FMWAFWC75S","7","1","3","0","0","10554","2017-09-14 13:10:25","2050"
"A2FBP73AQACKZ2","caus_thomas_as_v2","3OS46CRSLF0I4BW8RWNND6QDX9U6VZ","5","1","2","0","0","12990","2017-09-14 13:10:26","2051"
"A1H7IZ46Q472MG","caus_thomas_as_v2","3C8HJ7UOP7V12YMAF9J7N80VBKEZM1","6","0","2","1","0","30787","2017-09-14 13:10:26","2052"
"A1H49IS4NJB5I4","caus_thomas_as_v2","3U84XHCDICELY8X495JB1EJVPTTZ46","4","3","1","0","1","82873","2017-09-14 13:10:27","2053"
"A22JBMOHQKHTSS","caus_thomas_as_v2","32Z9ZLUT1LL3BG7SM3SDF5LVAUCOHF","6","3","1","0","1","11705","2017-09-14 13:10:29","2054"
"A38QZWKGT370RD","caus_thomas_as_v2","3YT88D1N08Z5RHFE9QBI4U3C7KLK3L","4","2","1","1","1","9527","2017-09-14 13:10:29","2055"
"A5ALZADPZOH6X","caus_thomas_as_v2","379J5II41OHJLLDTJA4F2LKON9GEL9","7","1","2","0","0","12635","2017-09-14 13:10:30","2056"
"A1H49IS4NJB5I4","caus_thomas_as_v2","3U84XHCDICELY8X495JB1EJVPTTZ46","5","1","2","0","0","1740","2017-09-14 13:10:30","2057"
"A3FCQN13WTL05Q
A3FCQN13WTL05Q
A3FCQN13WTL05Q A3FCQN13WTL05Q","caus_thomas_as_v2","39GAF6DQWR1NXPVBLQB6IAZWPYE1VW","8","3","3","0","1","19247","2017-09-14 13:10:32","2058"
"A22DDO8NILSX6O","caus_thomas_as_v2","32SCWG5HIH55ZRZC5KEO7E1VBLSP6W","4","2","2","1","1","8387","2017-09-14 13:10:32","2059"
"A3TBOHEHKXYV6C","caus_thomas_as_v2","3D4CH1LGEAUM4X8B08RDXFE50VE9GO","6","2","1","1","1","35193","2017-09-14 13:10:34","2060"
"AGBIQ958BK5B2","caus_thomas_as_v2","3OVHNO1VE62YY4GX2GK44ID126MZDJ","2","2","3","1","1","22195","2017-09-14 13:10:36","2061"
"A37XJVQF62ZYC","caus_thomas_as_v2","3WR9XG3T63C2EYRYQARSAUQWF0H74N","0","1","1","0","0","20671","2017-09-14 13:10:38","2062"
"A1N9ARF16GH31S","caus_thomas_as_v2","3M81GAB8A0KW5FHM1OALIZDXUIQBQV","7","0","2","1","0","49772","2017-09-14 13:10:38","2063"
"A5ALZADPZOH6X","caus_thomas_as_v2","379J5II41OHJLLDTJA4F2LKON9GEL9","2","2","3","1","1","8890","2017-09-14 13:10:40","2064"
"A2FBP73AQACKZ2","caus_thomas_as_v2","3OS46CRSLF0I4BW8RWNND6QDX9U6VZ","3","0","3","1","0","13073","2017-09-14 13:10:40","2065"
"A3BBK5YDUBRKYW","caus_thomas_as_v2","3YMU66OBIN9FJ3QUYKF5AWCTJ8MHGM","5","2","1","1","1","19192","2017-09-14 13:10:40","2066"
"A22DDO8NILSX6O","caus_thomas_as_v2","32SCWG5HIH55ZRZC5KEO7E1VBLSP6W","4","0","3","1","0","6444","2017-09-14 13:10:41","2067"
"ABSBKX1MUPLYB","caus_thomas_as_v2","3HL8HNGX452GQXCGPOLVFUETZGE9FP","7","2","2","1","1","20022","2017-09-14 13:10:44","2068"
"A1H7IZ46Q472MG","caus_thomas_as_v2","3C8HJ7UOP7V12YMAF9J7N80VBKEZM1","7","1","3","0","0","16984","2017-09-14 13:10:44","2069"
"A3H0XGON3XVK12","caus_thomas_as_v2","38F5OAUN5NDWQAFT5HBB4JZ0K53H7J","4","3","2","0","1","42813","2017-09-14 13:10:45","2070"
"A22JBMOHQKHTSS","caus_thomas_as_v2","32Z9ZLUT1LL3BG7SM3SDF5LVAUCOHF","4","0","2","1","0","16310","2017-09-14 13:10:46","2071"
"A3R1O5UC9QJGKY","caus_thomas_as_v2","3YWRV122CS05VAQWFLAG1YKLPXB8UY","6","2","0","1","1","42323","2017-09-14 13:10:48","2072"
"A1COQN0KWD4WDH","caus_thomas_as_v2","3U84XHCDICELY8X495JB1EJVPTU4ZC","7","1","0","0","0","34005","2017-09-14 13:10:49","2073"
"A3TBOHEHKXYV6C","caus_thomas_as_v2","3D4CH1LGEAUM4X8B08RDXFE50VE9GO","5","1","2","0","0","16369","2017-09-14 13:10:51","2074"
"A3BBK5YDUBRKYW","caus_thomas_as_v2","3YMU66OBIN9FJ3QUYKF5AWCTJ8MHGM","4","1","2","0","0","12612","2017-09-14 13:10:54","2075"
"A13T1T1VPOCMD3","caus_thomas_as_v2","3OONKJ5DKCKTK346MBIHTUIXFH8BON","4","3","0","0","1","50950","2017-09-14 13:10:57","2076"
"A22JBMOHQKHTSS","caus_thomas_as_v2","32Z9ZLUT1LL3BG7SM3SDF5LVAUCOHF","3","1","3","0","0","11322","2017-09-14 13:10:59","2077"
"AYAJ2TM7RVTBU","caus_thomas_as_v2","3E4GGUZ1T8SG6ZJV5QXDLKYK16L2KS","3","2","1","1","1","35352","2017-09-14 13:11:00","2078"
"A37XJVQF62ZYC","caus_thomas_as_v2","3WR9XG3T63C2EYRYQARSAUQWF0H74N","0","2","2","1","1","23969","2017-09-14 13:11:03","2079"
"A3TBOHEHKXYV6C","caus_thomas_as_v2","3D4CH1LGEAUM4X8B08RDXFE50VE9GO","5","0","3","1","0","13223","2017-09-14 13:11:05","2080"
"A3R1O5UC9QJGKY","caus_thomas_as_v2","3YWRV122CS05VAQWFLAG1YKLPXB8UY","7","1","1","0","0","16261","2017-09-14 13:11:05","2081"
"ABLP1KUWW46S6","caus_thomas_as_v2","3R6BYFZZP7D6RTUES4R9VX0B6J4XFV","0","1","0","0","0","35455","2017-09-14 13:11:06","2082"
"A3BBK5YDUBRKYW","caus_thomas_as_v2","3YMU66OBIN9FJ3QUYKF5AWCTJ8MHGM","4","0","3","1","0","11967","2017-09-14 13:11:07","2083"
"ABSBKX1MUPLYB","caus_thomas_as_v2","3HL8HNGX452GQXCGPOLVFUETZGE9FP","6","1","3","0","0","24557","2017-09-14 13:11:09","2084"
"A3H0XGON3XVK12","caus_thomas_as_v2","38F5OAUN5NDWQAFT5HBB4JZ0K53H7J","4","2","3","1","1","24150","2017-09-14 13:11:10","2085"
"A2WCYILM19VQEW","caus_thomas_as_v2","30OG32W0SUC99LGEVNKUFDODS4GENB","0","2","1","1","1","47070","2017-09-14 13:11:13","2086"
"A13T1T1VPOCMD3","caus_thomas_as_v2","3OONKJ5DKCKTK346MBIHTUIXFH8BON","4","1","1","0","0","16412","2017-09-14 13:11:15","2087"
"A3R1O5UC9QJGKY","caus_thomas_as_v2","3YWRV122CS05VAQWFLAG1YKLPXB8UY","7","3","2","0","1","9050","2017-09-14 13:11:16","2088"
"A37XJVQF62ZYC","caus_thomas_as_v2","3WR9XG3T63C2EYRYQARSAUQWF0H74N","0","3","3","0","1","11942","2017-09-14 13:11:16","2089"
"A1RCUS7G8DXXAH","caus_thomas_as_v2","32Q90QCQ1SM81FVBYASENL79Y9BKEC","4","2","0","1","1","85592","2017-09-14 13:11:17","2090"
"A1O67YS3DU0ZHX","caus_thomas_as_v2","3ZAK8W07I4FNDLLTKHX18JE36ZZ0U3","2","3","3","0","1","92373","2017-09-14 13:11:17","2091"
"A1H49IS4NJB5I4","caus_thomas_as_v2","3U84XHCDICELY8X495JB1EJVPTTZ46","6","0","3","1","0","46231","2017-09-14 13:11:17","2092"
"A1N9ARF16GH31S","caus_thomas_as_v2","3M81GAB8A0KW5FHM1OALIZDXUIQBQV","7","3","3","0","1","38584","2017-09-14 13:11:18","2093"
"A1COQN0KWD4WDH","caus_thomas_as_v2","3U84XHCDICELY8X495JB1EJVPTU4ZC","5","2","1","1","1","28052","2017-09-14 13:11:19","2094"
"AYAJ2TM7RVTBU","caus_thomas_as_v2","3E4GGUZ1T8SG6ZJV5QXDLKYK16L2KS","5","3","2","0","1","21200","2017-09-14 13:11:22","2095"
"A13T1T1VPOCMD3","caus_thomas_as_v2","3OONKJ5DKCKTK346MBIHTUIXFH8BON","4","2","2","1","1","7848","2017-09-14 13:11:23","2096"
"A35W13N45CZB1O","caus_thomas_as_v2","34Q075JO1XE74OUVITNHXH96V21104","0","0","0","1","0","105524","2017-09-14 13:11:25","2097"
"AFECJV2SCEZ82","caus_thomas_as_v2","33PPUNGG386SZEZ2KHFO97U5H7DZRP","7","3","0","0","1","99352","2017-09-14 13:11:25","2098"
"A3R1O5UC9QJGKY","caus_thomas_as_v2","3YWRV122CS05VAQWFLAG1YKLPXB8UY","6","0","3","1","0","8869","2017-09-14 13:11:25","2099"
"A2HOJ0B5A8DJVL","caus_thomas_as_v2","35L9RVQFCOJYOLRPIP4MEBDKSG1HUM","4","2","0","1","1","55987","2017-09-14 13:11:26","2100"
"A3N5RLYH05PY8L
","caus_thomas_as_v2","3Z4GS9HPNVBZXL9HS8PZD6A6627777","0","0","0","1","0","137347","2017-09-14 13:11:27","2101"
"A13T1T1VPOCMD3","caus_thomas_as_v2","3OONKJ5DKCKTK346MBIHTUIXFH8BON","4","0","3","1","0","5380","2017-09-14 13:11:30","2102"
"A1A8VMLJFFGCB6","caus_thomas_as_v2","3FE7TXL1LIO2H2HQIVHAH6AT0CD2QK","8","3","0","0","1","31672","2017-09-14 13:11:32","2103"
"A2D1MZDJBGTBMK","caus_thomas_as_v2","3II4UPYCOJ8PKCF6FK1RDP1XX31DQ3","5","1","0","0","0","30482","2017-09-14 13:11:33","2104"
"A2WCYILM19VQEW","caus_thomas_as_v2","30OG32W0SUC99LGEVNKUFDODS4GENB","0","0","2","1","0","19227","2017-09-14 13:11:33","2105"
"A2SJL3P54NDBMQ","caus_thomas_as_v2","308Q0PEVB8E00OE6QWRGIRRLF869IG","7","3","0","0","1","39060","2017-09-14 13:11:35","2106"
"A1COQN0KWD4WDH","caus_thomas_as_v2","3U84XHCDICELY8X495JB1EJVPTU4ZC","5","0","2","1","0","17130","2017-09-14 13:11:37","2107"
"A3N5RLYH05PY8L
","caus_thomas_as_v2","3Z4GS9HPNVBZXL9HS8PZD6A6627777","0","1","1","0","0","9537","2017-09-14 13:11:38","2108"
"AYAJ2TM7RVTBU","caus_thomas_as_v2","3E4GGUZ1T8SG6ZJV5QXDLKYK16L2KS","5","0","3","1","0","14840","2017-09-14 13:11:38","2109"
"A1RCUS7G8DXXAH","caus_thomas_as_v2","32Q90QCQ1SM81FVBYASENL79Y9BKEC","4","1","1","0","0","20506","2017-09-14 13:11:38","2110"
"A2D1MZDJBGTBMK","caus_thomas_as_v2","3II4UPYCOJ8PKCF6FK1RDP1XX31DQ3","5","2","1","1","1","7824","2017-09-14 13:11:42","2111"
"A3N5RLYH05PY8L
","caus_thomas_as_v2","3Z4GS9HPNVBZXL9HS8PZD6A6627777","0","2","2","1","1","4925","2017-09-14 13:11:44","2112"
"A2A6FH0F7LD9ND","caus_thomas_as_v2","3K772S5NP8CHZPU3SPPHATRH6S7HE5","7","2","0","1","1","40171","2017-09-14 13:11:44","2113"
"A2WCYILM19VQEW","caus_thomas_as_v2","30OG32W0SUC99LGEVNKUFDODS4GENB","0","3","3","0","1","11533","2017-09-14 13:11:46","2114"
"A2HOJ0B5A8DJVL","caus_thomas_as_v2","35L9RVQFCOJYOLRPIP4MEBDKSG1HUM","4","0","1","1","0","20905","2017-09-14 13:11:48","2115"
"A35W13N45CZB1O","caus_thomas_as_v2","34Q075JO1XE74OUVITNHXH96V21104","5","3","1","0","1","23272","2017-09-14 13:11:49","2116"
"A2D1MZDJBGTBMK","caus_thomas_as_v2","3II4UPYCOJ8PKCF6FK1RDP1XX31DQ3","5","3","2","0","1","8863","2017-09-14 13:11:52","2117"
"A1A8VMLJFFGCB6","caus_thomas_as_v2","3FE7TXL1LIO2H2HQIVHAH6AT0CD2QK","0","1","1","0","0","18491","2017-09-14 13:11:52","2118"
"A1RCUS7G8DXXAH","caus_thomas_as_v2","32Q90QCQ1SM81FVBYASENL79Y9BKEC","4","0","2","1","0","16233","2017-09-14 13:11:55","2119"
"A2D1MZDJBGTBMK","caus_thomas_as_v2","3II4UPYCOJ8PKCF6FK1RDP1XX31DQ3","5","0","3","1","0","4496","2017-09-14 13:11:57","2120"
"A2SJL3P54NDBMQ","caus_thomas_as_v2","308Q0PEVB8E00OE6QWRGIRRLF869IG","2","0","1","1","0","22978","2017-09-14 13:11:59","2121"
"AFECJV2SCEZ82","caus_thomas_as_v2","33PPUNGG386SZEZ2KHFO97U5H7DZRP","4","2","1","1","1","34480","2017-09-14 13:12:01","2122"
"A35W13N45CZB1O","caus_thomas_as_v2","34Q075JO1XE74OUVITNHXH96V21104","4","1","2","0","0","11230","2017-09-14 13:12:01","2123"
"A1COQN0KWD4WDH","caus_thomas_as_v2","3U84XHCDICELY8X495JB1EJVPTU4ZC","8","3","3","0","1","23871","2017-09-14 13:12:02","2124"
"A1SU8C0D1IJYTN","caus_thomas_as_v2","3DR23U6WE5F74YLYSJ66OCU5HM2ETC","4","1","0","0","0","26741","2017-09-14 13:12:03","2125"
"A35W13N45CZB1O","caus_thomas_as_v2","34Q075JO1XE74OUVITNHXH96V21104","1","2","3","1","1","3272","2017-09-14 13:12:06","2126"
"A1A8VMLJFFGCB6","caus_thomas_as_v2","3FE7TXL1LIO2H2HQIVHAH6AT0CD2QK","0","2","2","1","1","13970","2017-09-14 13:12:07","2127"
"ABLP1KUWW46S6","caus_thomas_as_v2","3R6BYFZZP7D6RTUES4R9VX0B6J4XFV","0","3","1","0","1","59733","2017-09-14 13:12:07","2128"
"A1RCUS7G8DXXAH","caus_thomas_as_v2","32Q90QCQ1SM81FVBYASENL79Y9BKEC","4","3","3","0","1","11838","2017-09-14 13:12:08","2129"
"A2HOJ0B5A8DJVL","caus_thomas_as_v2","35L9RVQFCOJYOLRPIP4MEBDKSG1HUM","7","3","2","0","1","21282","2017-09-14 13:12:10","2130"
"ABLP1KUWW46S6","caus_thomas_as_v2","3R6BYFZZP7D6RTUES4R9VX0B6J4XFV","0","0","2","1","0","4251","2017-09-14 13:12:12","2131"
"A1SU8C0D1IJYTN","caus_thomas_as_v2","3DR23U6WE5F74YLYSJ66OCU5HM2ETC","4","0","1","1","0","9684","2017-09-14 13:12:13","2132"
"AOTUGFGVVZMSQ","caus_thomas_as_v2","3H0W84IWBK3UOJ86OU1BOXTNT15ERZ","7","0","0","1","0","31747","2017-09-14 13:12:14","2133"
"ABLP1KUWW46S6","caus_thomas_as_v2","3R6BYFZZP7D6RTUES4R9VX0B6J4XFV","0","2","3","1","1","2973","2017-09-14 13:12:16","2134"
"A3N5RLYH05PY8L
","caus_thomas_as_v2","3Z4GS9HPNVBZXL9HS8PZD6A6627777","5","3","3","0","1","32215","2017-09-14 13:12:17","2135"
"A1A8VMLJFFGCB6","caus_thomas_as_v2","3FE7TXL1LIO2H2HQIVHAH6AT0CD2QK","0","0","3","1","0","10243","2017-09-14 13:12:18","2136"
"A1SU8C0D1IJYTN","caus_thomas_as_v2","3DR23U6WE5F74YLYSJ66OCU5HM2ETC","4","3","2","0","1","6315","2017-09-14 13:12:21","2137"
"A2MX7JUG8IWL2U","caus_thomas_as_v2","3ZPPDN2SLVXOKJCKUD1PXCTTNFZ9E7","4","2","0","1","1","173001","2017-09-14 13:12:21","2138"
"A2DWUXNCIGACP2","caus_thomas_as_v2","32VNZTT0A75CWHBDZOPYFBHWGCB4RJ","0","2","0","1","1","57036","2017-09-14 13:12:23","2139"
"A2SJL3P54NDBMQ","caus_thomas_as_v2","308Q0PEVB8E00OE6QWRGIRRLF869IG","6","1","2","0","0","25658","2017-09-14 13:12:25","2140"
"A38QZWKGT370RD","caus_thomas_as_v2","3YT88D1N08Z5RHFE9QBI4U3C7KLK3L","5","0","2","1","0","115230","2017-09-14 13:12:26","2141"
"A1SU8C0D1IJYTN","caus_thomas_as_v2","3DR23U6WE5F74YLYSJ66OCU5HM2ETC","4","2","3","1","1","4238","2017-09-14 13:12:26","2142"
"A2A6FH0F7LD9ND","caus_thomas_as_v2","3K772S5NP8CHZPU3SPPHATRH6S7HE5","8","3","1","0","1","41674","2017-09-14 13:12:27","2143"
"A2BKX3XN16KR0V
A2BKX3XN16KR0V
","caus_thomas_as_v2","30LSNF239UWP04T75NC184J792WI2X","4","0","0","1","0","35315","2017-09-14 13:12:29","2144"
"A2HOJ0B5A8DJVL","caus_thomas_as_v2","35L9RVQFCOJYOLRPIP4MEBDKSG1HUM","7","1","3","0","0","21943","2017-09-14 13:12:33","2145"
"AOTUGFGVVZMSQ","caus_thomas_as_v2","3H0W84IWBK3UOJ86OU1BOXTNT15ERZ","5","3","1","0","1","19325","2017-09-14 13:12:35","2146"
"A38QZWKGT370RD","caus_thomas_as_v2","3YT88D1N08Z5RHFE9QBI4U3C7KLK3L","6","1","3","0","0","8061","2017-09-14 13:12:35","2147"
"A2SJL3P54NDBMQ","caus_thomas_as_v2","308Q0PEVB8E00OE6QWRGIRRLF869IG","5","2","3","1","1","10220","2017-09-14 13:12:37","2148"
"AFECJV2SCEZ82","caus_thomas_as_v2","33PPUNGG386SZEZ2KHFO97U5H7DZRP","4","0","2","1","0","37775","2017-09-14 13:12:39","2149"
"A2YTO4EY3MNYAJ","caus_thomas_as_v2","3A1PQ49WVHIIFO0RG1U2398NHJ3H1M","6","1","0","0","0","40456","2017-09-14 13:12:45","2150"
"A2JJRPI671MF0U","caus_thomas_as_v2","324G5B4FB39LFA9X794QYR0JYO1070","4","0","0","1","0","30728","2017-09-14 13:12:46","2151"
"AOTUGFGVVZMSQ","caus_thomas_as_v2","3H0W84IWBK3UOJ86OU1BOXTNT15ERZ","5","1","2","0","0","15007","2017-09-14 13:12:51","2152"
"A2DWUXNCIGACP2","caus_thomas_as_v2","32VNZTT0A75CWHBDZOPYFBHWGCB4RJ","0","0","1","1","0","28773","2017-09-14 13:12:52","2153"
"A2A6FH0F7LD9ND","caus_thomas_as_v2","3K772S5NP8CHZPU3SPPHATRH6S7HE5","7","1","2","0","0","24246","2017-09-14 13:12:53","2154"
"A2IU5TX5S0FA1C","caus_thomas_as_v2","34QN5IT0TZSPFOEGHEWWCRWE98708N","5","2","0","1","1","35805","2017-09-14 13:12:53","2155"
"AK467M5VTG7N4","caus_thomas_as_v2","3ATTHHXXWAPQ1KW4TCXUYUD3MBWXIM","8","1","0","0","0","30751","2017-09-14 13:12:53","2156"
"A11UQWFUDNIHIL","caus_thomas_as_v2","3AMYWKA6YBNNERNBQK19IEW51GX6OX","6","1","0","0","0","44525","2017-09-14 13:12:57","2157"
"AOTUGFGVVZMSQ","caus_thomas_as_v2","3H0W84IWBK3UOJ86OU1BOXTNT15ERZ","7","2","3","1","1","8011","2017-09-14 13:13:00","2158"
"A2MX7JUG8IWL2U","caus_thomas_as_v2","3ZPPDN2SLVXOKJCKUD1PXCTTNFZ9E7","3","0","1","1","0","39404","2017-09-14 13:13:02","2159"
"A2BKX3XN16KR0V
A2BKX3XN16KR0V
","caus_thomas_as_v2","30LSNF239UWP04T75NC184J792WI2X","8","3","1","0","1","32885","2017-09-14 13:13:03","2160"
"AFECJV2SCEZ82","caus_thomas_as_v2","33PPUNGG386SZEZ2KHFO97U5H7DZRP","6","1","3","0","0","23237","2017-09-14 13:13:04","2161"
"AK467M5VTG7N4","caus_thomas_as_v2","3ATTHHXXWAPQ1KW4TCXUYUD3MBWXIM","8","0","1","1","0","12620","2017-09-14 13:13:06","2162"
"A2JJRPI671MF0U","caus_thomas_as_v2","324G5B4FB39LFA9X794QYR0JYO1070","2","2","1","1","1","25792","2017-09-14 13:13:12","2163"
"A2BKX3XN16KR0V
A2BKX3XN16KR0V
","caus_thomas_as_v2","30LSNF239UWP04T75NC184J792WI2X","8","1","2","0","0","9961","2017-09-14 13:13:14","2164"
"A2YTO4EY3MNYAJ","caus_thomas_as_v2","3A1PQ49WVHIIFO0RG1U2398NHJ3H1M","1","3","1","0","1","28404","2017-09-14 13:13:14","2165"
"A3pqugiqqbpr98","caus_thomas_as_v2","3DL65MZB8DGQIHJN6XBGZ2U1T02ECT","6","0","0","1","0","14483","2017-09-14 13:13:15","2166"
"A2DWUXNCIGACP2","caus_thomas_as_v2","32VNZTT0A75CWHBDZOPYFBHWGCB4RJ","0","3","2","0","1","22326","2017-09-14 13:13:16","2167"
"A11UQWFUDNIHIL","caus_thomas_as_v2","3AMYWKA6YBNNERNBQK19IEW51GX6OX","7","3","1","0","1","17749","2017-09-14 13:13:16","2168"
"A2IU5TX5S0FA1C","caus_thomas_as_v2","34QN5IT0TZSPFOEGHEWWCRWE98708N","5","3","1","0","1","23131","2017-09-14 13:13:17","2169"
"AK467M5VTG7N4","caus_thomas_as_v2","3ATTHHXXWAPQ1KW4TCXUYUD3MBWXIM","8","3","2","0","1","9901","2017-09-14 13:13:17","2170"
"AK467M5VTG7N4","caus_thomas_as_v2","3ATTHHXXWAPQ1KW4TCXUYUD3MBWXIM","8","2","3","1","1","8226","2017-09-14 13:13:26","2171"
"A3pqugiqqbpr98","caus_thomas_as_v2","3DL65MZB8DGQIHJN6XBGZ2U1T02ECT","5","1","1","0","0","10966","2017-09-14 13:13:27","2172"
"A2BKX3XN16KR0V
A2BKX3XN16KR0V
","caus_thomas_as_v2","30LSNF239UWP04T75NC184J792WI2X","4","2","3","1","1","11820","2017-09-14 13:13:27","2173"
"A2JJRPI671MF0U","caus_thomas_as_v2","324G5B4FB39LFA9X794QYR0JYO1070","5","1","2","0","0","14467","2017-09-14 13:13:28","2174"
"A2DWUXNCIGACP2","caus_thomas_as_v2","32VNZTT0A75CWHBDZOPYFBHWGCB4RJ","0","1","3","0","0","11278","2017-09-14 13:13:28","2175"
"A3R457FAWQXZN3","caus_thomas_as_v2","3ZOTGHDK5ICS1PL8XX4CJJSXJ5TOS0","4","1","0","0","0","21464","2017-09-14 13:13:30","2176"
"A11UQWFUDNIHIL","caus_thomas_as_v2","3AMYWKA6YBNNERNBQK19IEW51GX6OX","4","2","2","1","1","12724","2017-09-14 13:13:30","2177"
"A2MX7JUG8IWL2U","caus_thomas_as_v2","3ZPPDN2SLVXOKJCKUD1PXCTTNFZ9E7","1","3","2","0","1","27385","2017-09-14 13:13:30","2178"
"A1GVHFB9F270GX","caus_thomas_as_v2","3YZ8UPK3VTN77DG9WXQL3KG4FOWCU8","2","1","0","0","0","19224","2017-09-14 13:13:32","2179"
"A2YTO4EY3MNYAJ","caus_thomas_as_v2","3A1PQ49WVHIIFO0RG1U2398NHJ3H1M","2","0","2","1","0","18042","2017-09-14 13:13:34","2180"
"A1GVHFB9F270GX","caus_thomas_as_v2","3YZ8UPK3VTN77DG9WXQL3KG4FOWCU8","3","3","1","0","1","3823","2017-09-14 13:13:37","2181"
"A3pqugiqqbpr98","caus_thomas_as_v2","3DL65MZB8DGQIHJN6XBGZ2U1T02ECT","7","3","2","0","1","11015","2017-09-14 13:13:39","2182"
"A2A6FH0F7LD9ND","caus_thomas_as_v2","3K772S5NP8CHZPU3SPPHATRH6S7HE5","8","0","3","1","0","46091","2017-09-14 13:13:39","2183"
"A2JJRPI671MF0U","caus_thomas_as_v2","324G5B4FB39LFA9X794QYR0JYO1070","5","3","3","0","1","10938","2017-09-14 13:13:40","2184"
"A11UQWFUDNIHIL","caus_thomas_as_v2","3AMYWKA6YBNNERNBQK19IEW51GX6OX","4","0","3","1","0","10533","2017-09-14 13:13:41","2185"
"A3W1WV731SLD7X","caus_thomas_as_v2","3HWRJOOET536PY8J3J1GE7YJF3OESN","0","3","0","0","1","38985","2017-09-14 13:13:42","2186"
"A3R457FAWQXZN3","caus_thomas_as_v2","3ZOTGHDK5ICS1PL8XX4CJJSXJ5TOS0","4","3","1","0","1","12035","2017-09-14 13:13:43","2187"
"AU34T9OMHN4Z4","caus_thomas_as_v2","3OS4RQUCR9GZEQRDN8ZR609JNGHFB5","3","0","0","1","0","34548","2017-09-14 13:13:45","2188"
"A1GVHFB9F270GX","caus_thomas_as_v2","3YZ8UPK3VTN77DG9WXQL3KG4FOWCU8","4","0","2","1","0","6917","2017-09-14 13:13:45","2189"
"A2YTO4EY3MNYAJ","caus_thomas_as_v2","3A1PQ49WVHIIFO0RG1U2398NHJ3H1M","6","2","3","1","1","13072","2017-09-14 13:13:48","2190"
"A2R369ORILTO29","caus_thomas_as_v2","3OJSZ2ATDSXKAHVY4FA2FMWAFWC57Q","1","1","0","0","0","63122","2017-09-14 13:13:48","2191"
"A1GVHFB9F270GX","caus_thomas_as_v2","3YZ8UPK3VTN77DG9WXQL3KG4FOWCU8","3","2","3","1","1","2571","2017-09-14 13:13:49","2192"
"A1ILV394W9AJVY","caus_thomas_as_v2","3STRJBFXOWSAQYD8O5H9M77A1JYKT2","3","2","0","1","1","42666","2017-09-14 13:13:51","2193"
"A1B65EVDS55AME","caus_thomas_as_v2","3N2BF7Y2VQVFBDMG9ND0N1WQFUYHMU","8","3","0","0","1","33654","2017-09-14 13:13:52","2194"
"A2MX7JUG8IWL2U","caus_thomas_as_v2","3ZPPDN2SLVXOKJCKUD1PXCTTNFZ9E7","1","1","3","0","0","22600","2017-09-14 13:13:54","2195"
"A2IU5TX5S0FA1C","caus_thomas_as_v2","34QN5IT0TZSPFOEGHEWWCRWE98708N","5","0","2","1","0","36214","2017-09-14 13:13:54","2196"
"ARIY7R4C3ZUIO","caus_thomas_as_v2","3S3AMIZX3U6LQB5NA20WTKCGTO1CDY","8","0","0","1","0","53623","2017-09-14 13:13:54","2197"
"A2NTS2HNDOLRCR","caus_thomas_as_v2","3QFUFYSY9YGFTR648TP4YM3DDO04FO","0","0","0","1","0","37594","2017-09-14 13:13:57","2198"
"A3pqugiqqbpr98","caus_thomas_as_v2","3DL65MZB8DGQIHJN6XBGZ2U1T02ECT","4","2","3","1","1","18140","2017-09-14 13:13:58","2199"
"ACH337Q8X1SOI","caus_thomas_as_v2","3OVR4I9USPKCKGWDM90YAL7RKQ94QI","2","0","0","1","0","4961","2017-09-14 13:14:00","2200"
"A3R457FAWQXZN3","caus_thomas_as_v2","3ZOTGHDK5ICS1PL8XX4CJJSXJ5TOS0","4","0","2","1","0","17446","2017-09-14 13:14:01","2201"
"ACH337Q8X1SOI","caus_thomas_as_v2","3OVR4I9USPKCKGWDM90YAL7RKQ94QI","3","3","1","0","1","2339","2017-09-14 13:14:04","2202"
"A2NTS2HNDOLRCR","caus_thomas_as_v2","3QFUFYSY9YGFTR648TP4YM3DDO04FO","6","2","1","1","1","5481","2017-09-14 13:14:04","2203"
"AU34T9OMHN4Z4","caus_thomas_as_v2","3OS4RQUCR9GZEQRDN8ZR609JNGHFB5","6","1","1","0","0","19468","2017-09-14 13:14:05","2204"
"ACH337Q8X1SOI","caus_thomas_as_v2","3OVR4I9USPKCKGWDM90YAL7RKQ94QI","4","1","2","0","0","2094","2017-09-14 13:14:07","2205"
"A2IU5TX5S0FA1C","caus_thomas_as_v2","34QN5IT0TZSPFOEGHEWWCRWE98708N","5","1","3","0","0","13393","2017-09-14 13:14:08","2206"
"A394GXC30A1YP6","caus_thomas_as_v2","3XLBSAQ9Z4DIHVFNB3HI4Q35GVK7ZZ","5","2","0","1","1","31227","2017-09-14 13:14:09","2207"
"ACH337Q8X1SOI","caus_thomas_as_v2","3OVR4I9USPKCKGWDM90YAL7RKQ94QI","5","2","3","1","1","1995","2017-09-14 13:14:10","2208"
"A1ILV394W9AJVY","caus_thomas_as_v2","3STRJBFXOWSAQYD8O5H9M77A1JYKT2","1","0","1","1","0","18141","2017-09-14 13:14:10","2209"
"A2R369ORILTO29","caus_thomas_as_v2","3OJSZ2ATDSXKAHVY4FA2FMWAFWC57Q","1","0","1","1","0","23463","2017-09-14 13:14:12","2210"
"A1B65EVDS55AME","caus_thomas_as_v2","3N2BF7Y2VQVFBDMG9ND0N1WQFUYHMU","8","2","1","1","1","19747","2017-09-14 13:14:13","2211"
"A3R457FAWQXZN3","caus_thomas_as_v2","3ZOTGHDK5ICS1PL8XX4CJJSXJ5TOS0","4","2","3","1","1","12120","2017-09-14 13:14:14","2212"
"A2NTS2HNDOLRCR","caus_thomas_as_v2","3QFUFYSY9YGFTR648TP4YM3DDO04FO","4","1","2","0","0","13724","2017-09-14 13:14:18","2213"
"A1ILV394W9AJVY","caus_thomas_as_v2","3STRJBFXOWSAQYD8O5H9M77A1JYKT2","0","1","2","0","0","7477","2017-09-14 13:14:19","2214"
"AU34T9OMHN4Z4","caus_thomas_as_v2","3OS4RQUCR9GZEQRDN8ZR609JNGHFB5","7","3","2","0","1","16439","2017-09-14 13:14:23","2215"
"A394GXC30A1YP6","caus_thomas_as_v2","3XLBSAQ9Z4DIHVFNB3HI4Q35GVK7ZZ","7","3","1","0","1","15318","2017-09-14 13:14:26","2216"
"A2NTS2HNDOLRCR","caus_thomas_as_v2","3QFUFYSY9YGFTR648TP4YM3DDO04FO","4","3","3","0","1","10057","2017-09-14 13:14:29","2217"
"A2R369ORILTO29","caus_thomas_as_v2","3OJSZ2ATDSXKAHVY4FA2FMWAFWC57Q","1","3","2","0","1","16269","2017-09-14 13:14:30","2218"
"A1B65EVDS55AME","caus_thomas_as_v2","3N2BF7Y2VQVFBDMG9ND0N1WQFUYHMU","8","0","2","1","0","15942","2017-09-14 13:14:30","2219"
"A1ILV394W9AJVY","caus_thomas_as_v2","3STRJBFXOWSAQYD8O5H9M77A1JYKT2","0","3","3","0","1","11180","2017-09-14 13:14:31","2220"
"AU34T9OMHN4Z4","caus_thomas_as_v2","3OS4RQUCR9GZEQRDN8ZR609JNGHFB5","2","2","3","1","1","13704","2017-09-14 13:14:38","2221"
"A12HZGOZQD5YK7","caus_thomas_as_v2","34S6N1K2ZVKV5V4V9BCLNOH1FP8HLS","0","1","0","0","0","54955","2017-09-14 13:14:38","2222"
"A394GXC30A1YP6","caus_thomas_as_v2","3XLBSAQ9Z4DIHVFNB3HI4Q35GVK7ZZ","7","1","2","0","0","11928","2017-09-14 13:14:39","2223"
"A13WFFPE9L1QAB","caus_thomas_as_v2","326O153BMIZ0N9P16T6RJ8CJE0EEDT","8","0","0","1","0","345727","2017-09-14 13:14:39","2224"
"A3W1WV731SLD7X","caus_thomas_as_v2","3HWRJOOET536PY8J3J1GE7YJF3OESN","4","0","1","1","0","59675","2017-09-14 13:14:43","2225"
"A3EN54EJAR9QP0","caus_thomas_as_v2","3HYA4D452RK5QDRH4F6G576FTA42FQ","6","1","0","0","0","56854","2017-09-14 13:14:47","2226"
"A2R369ORILTO29","caus_thomas_as_v2","3OJSZ2ATDSXKAHVY4FA2FMWAFWC57Q","1","2","3","1","1","19222","2017-09-14 13:14:50","2227"
"A3QQ2MIDB55Y9W","caus_thomas_as_v2","3K2755HG5S4STNPX14QX1QXJQ1TFDC","7","3","0","0","1","34858","2017-09-14 13:14:52","2228"
"A394GXC30A1YP6","caus_thomas_as_v2","3XLBSAQ9Z4DIHVFNB3HI4Q35GVK7ZZ","5","0","3","1","0","12860","2017-09-14 13:14:52","2229"
"A1VF3WAZ8YS8K2","caus_thomas_as_v2","36DSNE9QZ5ZZ2M2IA3VYRI1ANMGOJK","4","0","0","1","0","33944","2017-09-14 13:14:54","2230"
"A3W1WV731SLD7X","caus_thomas_as_v2","3HWRJOOET536PY8J3J1GE7YJF3OESN","5","2","2","1","1","16131","2017-09-14 13:15:00","2231"
"A1B65EVDS55AME","caus_thomas_as_v2","3N2BF7Y2VQVFBDMG9ND0N1WQFUYHMU","8","1","3","0","0","29611","2017-09-14 13:15:00","2232"
"A1Z3J8LU8T37FZ","caus_thomas_as_v2","3ATTHHXXWAPQ1KW4TCXUYUD3MBXIX8","0","3","0","0","1","27184","2017-09-14 13:15:01","2233"
"A3V9NNG0SAKPGB","caus_thomas_as_v2","32RIADZISS5OXWBQEDP35LMS2EU4S7","0","1","0","0","0","25739","2017-09-14 13:15:08","2234"
"A12HZGOZQD5YK7","caus_thomas_as_v2","34S6N1K2ZVKV5V4V9BCLNOH1FP8HLS","0","3","1","0","1","29655","2017-09-14 13:15:08","2235"
"A1BIAX9X6B7D18","caus_thomas_as_v2","3FTYUGLFSUM0RQW8VSDOFE6617F5DJ","5","1","0","0","0","22235","2017-09-14 13:15:09","2236"
"A3MXI2O3JZ0TZH
A3MXI2O3JZ0TZH
","caus_thomas_as_v2","3W2LOLRXLBGXAJ0GKGCEMS6SDY1KRP","6","2","0","1","1","135644","2017-09-14 13:15:12","2237"
"A1VF3WAZ8YS8K2","caus_thomas_as_v2","36DSNE9QZ5ZZ2M2IA3VYRI1ANMGOJK","4","1","1","0","0","16772","2017-09-14 13:15:12","2238"
"A3W1WV731SLD7X","caus_thomas_as_v2","3HWRJOOET536PY8J3J1GE7YJF3OESN","8","1","3","0","0","11279","2017-09-14 13:15:12","2239"
"A3QQ2MIDB55Y9W","caus_thomas_as_v2","3K2755HG5S4STNPX14QX1QXJQ1TFDC","5","2","1","1","1","23329","2017-09-14 13:15:17","2240"
"A1Z3J8LU8T37FZ","caus_thomas_as_v2","3ATTHHXXWAPQ1KW4TCXUYUD3MBXIX8","8","2","1","1","1","15136","2017-09-14 13:15:17","2241"
"A1BIAX9X6B7D18","caus_thomas_as_v2","3FTYUGLFSUM0RQW8VSDOFE6617F5DJ","5","2","1","1","1","12774","2017-09-14 13:15:23","2242"
"A3V9NNG0SAKPGB","caus_thomas_as_v2","32RIADZISS5OXWBQEDP35LMS2EU4S7","0","2","1","1","1","18714","2017-09-14 13:15:28","2243"
"A1Z3J8LU8T37FZ","caus_thomas_as_v2","3ATTHHXXWAPQ1KW4TCXUYUD3MBXIX8","4","0","2","1","0","10387","2017-09-14 13:15:28","2244"
"A3MXI2O3JZ0TZH
A3MXI2O3JZ0TZH
","caus_thomas_as_v2","3W2LOLRXLBGXAJ0GKGCEMS6SDY1KRP","6","1","1","0","0","16569","2017-09-14 13:15:29","2245"
"A1VF3WAZ8YS8K2","caus_thomas_as_v2","36DSNE9QZ5ZZ2M2IA3VYRI1ANMGOJK","5","3","2","0","1","16232","2017-09-14 13:15:29","2246"
"A3QQ2MIDB55Y9W","caus_thomas_as_v2","3K2755HG5S4STNPX14QX1QXJQ1TFDC","6","0","2","1","0","14019","2017-09-14 13:15:32","2247"
"A1BIAX9X6B7D18","caus_thomas_as_v2","3FTYUGLFSUM0RQW8VSDOFE6617F5DJ","5","3","2","0","1","7586","2017-09-14 13:15:32","2248"
"A12HZGOZQD5YK7","caus_thomas_as_v2","34S6N1K2ZVKV5V4V9BCLNOH1FP8HLS","0","2","2","1","1","23479","2017-09-14 13:15:33","2249"
"A3MXI2O3JZ0TZH
A3MXI2O3JZ0TZH
","caus_thomas_as_v2","3W2LOLRXLBGXAJ0GKGCEMS6SDY1KRP","6","3","2","0","1","4856","2017-09-14 13:15:35","2250"
"A377LTGWJKY2IW
","caus_thomas_as_v2","3DBQWDE4Y6Z9D2NLKMRRBJI0FBHN5J","2","1","0","0","0","46617","2017-09-14 13:15:37","2251"
"A1Z3J8LU8T37FZ","caus_thomas_as_v2","3ATTHHXXWAPQ1KW4TCXUYUD3MBXIX8","6","1","3","0","0","8489","2017-09-14 13:15:38","2252"
"A3EN54EJAR9QP0","caus_thomas_as_v2","3HYA4D452RK5QDRH4F6G576FTA42FQ","4","2","1","1","1","50531","2017-09-14 13:15:39","2253"
"A1VF3WAZ8YS8K2","caus_thomas_as_v2","36DSNE9QZ5ZZ2M2IA3VYRI1ANMGOJK","3","2","3","1","1","8917","2017-09-14 13:15:39","2254"
"A3MXI2O3JZ0TZH
A3MXI2O3JZ0TZH
","caus_thomas_as_v2","3W2LOLRXLBGXAJ0GKGCEMS6SDY1KRP","6","0","3","1","0","5280","2017-09-14 13:15:42","2255"
"A3V9NNG0SAKPGB","caus_thomas_as_v2","32RIADZISS5OXWBQEDP35LMS2EU4S7","0","3","2","0","1","16472","2017-09-14 13:15:45","2256"
"ASDVTG4J7ZHEQ","caus_thomas_as_v2","3TPZPLC3M0D628CUMIGQ0BPB1UQP3Q","4","2","0","1","1","560278","2017-09-14 13:15:45","2257"
"A1BIAX9X6B7D18","caus_thomas_as_v2","3FTYUGLFSUM0RQW8VSDOFE6617F5DJ","6","0","3","1","0","13421","2017-09-14 13:15:46","2258"
"A4158R4Y06ZB4","caus_thomas_as_v2","37ZHEEHM6WNHW28UQWM90PYQ10L732","8","2","0","1","1","22161","2017-09-14 13:15:47","2259"
"A3QQ2MIDB55Y9W","caus_thomas_as_v2","3K2755HG5S4STNPX14QX1QXJQ1TFDC","7","1","3","0","0","15196","2017-09-14 13:15:48","2260"
"A3V9NNG0SAKPGB","caus_thomas_as_v2","32RIADZISS5OXWBQEDP35LMS2EU4S7","0","0","3","1","0","7084","2017-09-14 13:15:53","2261"
"A4158R4Y06ZB4","caus_thomas_as_v2","37ZHEEHM6WNHW28UQWM90PYQ10L732","0","3","1","0","1","7069","2017-09-14 13:15:55","2262"
"A377LTGWJKY2IW
","caus_thomas_as_v2","3DBQWDE4Y6Z9D2NLKMRRBJI0FBHN5J","3","3","1","0","1","19727","2017-09-14 13:15:58","2263"
"A65WPAA7CAVGU","caus_thomas_as_v2","3TR2532VIPV9DGWEA794AIFJ2MNJ6R","6","2","0","1","1","38385","2017-09-14 13:16:04","2264"
"A3QJDP116O759Z","caus_thomas_as_v2","30ZX6P7VF8WLVFDDN5X1K5Y7MHLJ2A","0","2","0","1","1","96575","2017-09-14 13:16:06","2265"
"A4158R4Y06ZB4","caus_thomas_as_v2","37ZHEEHM6WNHW28UQWM90PYQ10L732","4","1","2","0","0","10042","2017-09-14 13:16:06","2266"
"ASDVTG4J7ZHEQ","caus_thomas_as_v2","3TPZPLC3M0D628CUMIGQ0BPB1UQP3Q","6","0","1","1","0","20732","2017-09-14 13:16:07","2267"
"A3KOT3B7E14QGF
","caus_thomas_as_v2","3GNA64GUZE5UGZ0D0EJ8FDD5KM45QO","8","2","0","1","1","58821","2017-09-14 13:16:12","2268"
"ATHS9GUME1XCA","caus_thomas_as_v2","3C5W7UE9CFRCX3MVERVMQNKK3KHMXS","5","3","0","0","1","47307","2017-09-14 13:16:14","2269"
"A17497K07LP4RX","caus_thomas_as_v2","3K4J6M3CXEU09GIGSE5DTAPP6DWAG4","6","2","0","1","1","35236","2017-09-14 13:16:16","2270"
"A3V2V6GPIQQMUJ","caus_thomas_as_v2","3KMS4QQVK2R07TV7TLCK53S9AAQFKP","1","0","0","1","0","39210","2017-09-14 13:16:19","2271"
"ASDVTG4J7ZHEQ","caus_thomas_as_v2","3TPZPLC3M0D628CUMIGQ0BPB1UQP3Q","8","1","2","0","0","11629","2017-09-14 13:16:20","2272"
"ATHS9GUME1XCA","caus_thomas_as_v2","3C5W7UE9CFRCX3MVERVMQNKK3KHMXS","5","0","1","1","0","4358","2017-09-14 13:16:20","2273"
"A31469TBZDJNZL","caus_thomas_as_v2","3JWH6J9I9SEB2I4ULWI4E5ISP73NBK","0","3","0","0","1","27304","2017-09-14 13:16:20","2274"
"A65WPAA7CAVGU","caus_thomas_as_v2","3TR2532VIPV9DGWEA794AIFJ2MNJ6R","4","0","1","1","0","15735","2017-09-14 13:16:21","2275"
"A4158R4Y06ZB4","caus_thomas_as_v2","37ZHEEHM6WNHW28UQWM90PYQ10L732","4","0","3","1","0","15736","2017-09-14 13:16:23","2276"
"ARIY7R4C3ZUIO","caus_thomas_as_v2","3S3AMIZX3U6LQB5NA20WTKCGTO1CDY","7","1","1","0","0","147518","2017-09-14 13:16:24","2277"
"A3KOT3B7E14QGF
","caus_thomas_as_v2","3GNA64GUZE5UGZ0D0EJ8FDD5KM45QO","8","3","1","0","1","15933","2017-09-14 13:16:29","2278"
"ATHS9GUME1XCA","caus_thomas_as_v2","3C5W7UE9CFRCX3MVERVMQNKK3KHMXS","5","2","2","1","1","9407","2017-09-14 13:16:30","2279"
"A3EN54EJAR9QP0","caus_thomas_as_v2","3HYA4D452RK5QDRH4F6G576FTA42FQ","7","3","2","0","1","51914","2017-09-14 13:16:31","2280"
"A377LTGWJKY2IW
","caus_thomas_as_v2","3DBQWDE4Y6Z9D2NLKMRRBJI0FBHN5J","2","2","2","1","1","34983","2017-09-14 13:16:34","2281"
"ATHS9GUME1XCA","caus_thomas_as_v2","3C5W7UE9CFRCX3MVERVMQNKK3KHMXS","6","1","3","0","0","3667","2017-09-14 13:16:35","2282"
"A65WPAA7CAVGU","caus_thomas_as_v2","3TR2532VIPV9DGWEA794AIFJ2MNJ6R","4","1","2","0","0","13754","2017-09-14 13:16:35","2283"
"ASDVTG4J7ZHEQ","caus_thomas_as_v2","3TPZPLC3M0D628CUMIGQ0BPB1UQP3Q","8","3","3","0","1","14889","2017-09-14 13:16:36","2284"
"A3V2V6GPIQQMUJ","caus_thomas_as_v2","3KMS4QQVK2R07TV7TLCK53S9AAQFKP","1","2","1","1","1","16505","2017-09-14 13:16:37","2285"
"A12HZGOZQD5YK7","caus_thomas_as_v2","34S6N1K2ZVKV5V4V9BCLNOH1FP8HLS","0","0","3","1","0","65673","2017-09-14 13:16:40","2286"
"A17497K07LP4RX","caus_thomas_as_v2","3K4J6M3CXEU09GIGSE5DTAPP6DWAG4","6","1","1","0","0","22513","2017-09-14 13:16:40","2287"
"ARIY7R4C3ZUIO","caus_thomas_as_v2","3S3AMIZX3U6LQB5NA20WTKCGTO1CDY","8","2","2","1","1","16325","2017-09-14 13:16:40","2288"
"A1JCFEDLZZKNZ3","caus_thomas_as_v2","3IO1LGZLK9YKTZ0VJ3CDLS65MBT86W","4","2","0","1","1","30688","2017-09-14 13:16:41","2289"
"A65WPAA7CAVGU","caus_thomas_as_v2","3TR2532VIPV9DGWEA794AIFJ2MNJ6R","4","3","3","0","1","6673","2017-09-14 13:16:43","2290"
"A31469TBZDJNZL","caus_thomas_as_v2","3JWH6J9I9SEB2I4ULWI4E5ISP73NBK","0","2","1","1","1","24058","2017-09-14 13:16:45","2291"
"A3V2V6GPIQQMUJ","caus_thomas_as_v2","3KMS4QQVK2R07TV7TLCK53S9AAQFKP","1","3","2","0","1","12358","2017-09-14 13:16:50","2292"
"A377LTGWJKY2IW
","caus_thomas_as_v2","3DBQWDE4Y6Z9D2NLKMRRBJI0FBHN5J","0","0","3","1","0","15737","2017-09-14 13:16:51","2293"
"A3KOT3B7E14QGF
","caus_thomas_as_v2","3GNA64GUZE5UGZ0D0EJ8FDD5KM45QO","1","0","2","1","0","22698","2017-09-14 13:16:53","2294"
"A3QJDP116O759Z","caus_thomas_as_v2","30ZX6P7VF8WLVFDDN5X1K5Y7MHLJ2A","0","0","1","1","0","47980","2017-09-14 13:16:55","2295"
"A17497K07LP4RX","caus_thomas_as_v2","3K4J6M3CXEU09GIGSE5DTAPP6DWAG4","6","0","2","1","0","14313","2017-09-14 13:16:55","2296"
"ARIY7R4C3ZUIO","caus_thomas_as_v2","3S3AMIZX3U6LQB5NA20WTKCGTO1CDY","8","3","3","0","1","15297","2017-09-14 13:16:57","2297"
"A3V2V6GPIQQMUJ","caus_thomas_as_v2","3KMS4QQVK2R07TV7TLCK53S9AAQFKP","1","1","3","0","0","6451","2017-09-14 13:16:57","2298"
"A3KOT3B7E14QGF
","caus_thomas_as_v2","3GNA64GUZE5UGZ0D0EJ8FDD5KM45QO","1","1","3","0","0","10227","2017-09-14 13:17:04","2299"
"A3EN54EJAR9QP0","caus_thomas_as_v2","3HYA4D452RK5QDRH4F6G576FTA42FQ","2","0","3","1","0","31730","2017-09-14 13:17:04","2300"
"A1JCFEDLZZKNZ3","caus_thomas_as_v2","3IO1LGZLK9YKTZ0VJ3CDLS65MBT86W","4","0","1","1","0","25639","2017-09-14 13:17:07","2301"
"A17497K07LP4RX","caus_thomas_as_v2","3K4J6M3CXEU09GIGSE5DTAPP6DWAG4","6","3","3","0","1","17525","2017-09-14 13:17:14","2302"
"A1PBRKFHSF1OF8","caus_thomas_as_v2","3TXWC2NHNZRPU2H2V8LUMTX8O68S9R","0","1","0","0","0","22976","2017-09-14 13:17:18","2303"
"ATD9IHXHMQURL","caus_thomas_as_v2","3LWJHTCVCCNMIWT26QWH1P4I9GIFQH","5","3","0","0","1","34677","2017-09-14 13:17:22","2304"
"A30WRV40L5NFYS","caus_thomas_as_v2","3HOSI13XHZPVV3B1AYV7DQUYEODDDZ","8","0","0","1","0","27557","2017-09-14 13:17:22","2305"
"A31469TBZDJNZL","caus_thomas_as_v2","3JWH6J9I9SEB2I4ULWI4E5ISP73NBK","0","1","2","0","0","36525","2017-09-14 13:17:23","2306"
"A1JCFEDLZZKNZ3","caus_thomas_as_v2","3IO1LGZLK9YKTZ0VJ3CDLS65MBT86W","4","1","2","0","0","15234","2017-09-14 13:17:24","2307"
"A3L1DZWXQFWB90
","caus_thomas_as_v2","36AHBNMV1RDYTE6S6UILQB4ZWCIYDR","1","0","0","1","0","12568","2017-09-14 13:17:29","2308"
"A1PBRKFHSF1OF8","caus_thomas_as_v2","3TXWC2NHNZRPU2H2V8LUMTX8O68S9R","0","0","1","1","0","10916","2017-09-14 13:17:31","2309"
"A3QJDP116O759Z","caus_thomas_as_v2","30ZX6P7VF8WLVFDDN5X1K5Y7MHLJ2A","0","3","2","0","1","36224","2017-09-14 13:17:32","2310"
"A1JCFEDLZZKNZ3","caus_thomas_as_v2","3IO1LGZLK9YKTZ0VJ3CDLS65MBT86W","4","3","3","0","1","11336","2017-09-14 13:17:36","2311"
"A1B76WYZ47BQJ","caus_thomas_as_v2","3YDGXNSEOZV6ECWH0FJYOUMRQKN84B","8","0","0","1","0","27131","2017-09-14 13:17:37","2312"
"A3U0K4A3LQXQO4","caus_thomas_as_v2","3QAVNHZ3EM5GV8WH352T62UX2UIALA","2","0","0","1","0","54235","2017-09-14 13:17:38","2313"
"A1PBRKFHSF1OF8","caus_thomas_as_v2","3TXWC2NHNZRPU2H2V8LUMTX8O68S9R","0","3","2","0","1","7634","2017-09-14 13:17:39","2314"
"A3L1DZWXQFWB90
","caus_thomas_as_v2","36AHBNMV1RDYTE6S6UILQB4ZWCIYDR","4","2","1","1","1","10772","2017-09-14 13:17:40","2315"
"A30WRV40L5NFYS","caus_thomas_as_v2","3HOSI13XHZPVV3B1AYV7DQUYEODDDZ","8","2","1","1","1","18508","2017-09-14 13:17:42","2316"
"A1B76WYZ47BQJ","caus_thomas_as_v2","3YDGXNSEOZV6ECWH0FJYOUMRQKN84B","6","1","1","0","0","5662","2017-09-14 13:17:44","2317"
"A1PBRKFHSF1OF8","caus_thomas_as_v2","3TXWC2NHNZRPU2H2V8LUMTX8O68S9R","0","2","3","1","1","4512","2017-09-14 13:17:44","2318"
"AOO53KIMNLQNM
","caus_thomas_as_v2","3M1CVSFP606RM5CUVAAPNOTRC05QAF","1","0","0","1","0","42777","2017-09-14 13:17:46","2319"
"A3QJDP116O759Z","caus_thomas_as_v2","30ZX6P7VF8WLVFDDN5X1K5Y7MHLJ2A","0","1","3","0","0","14227","2017-09-14 13:17:47","2320"
"A3L1DZWXQFWB90
","caus_thomas_as_v2","36AHBNMV1RDYTE6S6UILQB4ZWCIYDR","0","1","2","0","0","5839","2017-09-14 13:17:47","2321"
"A30WRV40L5NFYS","caus_thomas_as_v2","3HOSI13XHZPVV3B1AYV7DQUYEODDDZ","8","1","2","0","0","4640","2017-09-14 13:17:48","2322"
"A1B76WYZ47BQJ","caus_thomas_as_v2","3YDGXNSEOZV6ECWH0FJYOUMRQKN84B","6","2","2","1","1","5824","2017-09-14 13:17:50","2323"
"A3L1DZWXQFWB90
","caus_thomas_as_v2","36AHBNMV1RDYTE6S6UILQB4ZWCIYDR","0","3","3","0","1","3216","2017-09-14 13:17:52","2324"
"ATD9IHXHMQURL","caus_thomas_as_v2","3LWJHTCVCCNMIWT26QWH1P4I9GIFQH","5","1","1","0","0","28503","2017-09-14 13:17:52","2325"
"A1B76WYZ47BQJ","caus_thomas_as_v2","3YDGXNSEOZV6ECWH0FJYOUMRQKN84B","4","3","3","0","1","4022","2017-09-14 13:17:56","2326"
"A30WRV40L5NFYS","caus_thomas_as_v2","3HOSI13XHZPVV3B1AYV7DQUYEODDDZ","8","3","3","0","1","11763","2017-09-14 13:18:00","2327"
"AMUV60QYHNUR3","caus_thomas_as_v2","3JPSL1DZ5S06J8Z2FII8JUYM7PINAP","0","2","0","1","1","30112","2017-09-14 13:18:02","2328"
"A2NHIKI290Q7ML","caus_thomas_as_v2","30OG32W0SUC99LGEVNKUFDODS4GNEK","3","0","0","1","0","64089","2017-09-14 13:18:02","2329"
"A3U0K4A3LQXQO4","caus_thomas_as_v2","3QAVNHZ3EM5GV8WH352T62UX2UIALA","2","2","1","1","1","27791","2017-09-14 13:18:07","2330"
"A29EL77Y1V21Q7","caus_thomas_as_v2","39LOEL67OS6LWGDD01EFEPULCKR83Q","6","1","0","0","0","49262","2017-09-14 13:18:07","2331"
"A31469TBZDJNZL","caus_thomas_as_v2","3JWH6J9I9SEB2I4ULWI4E5ISP73NBK","0","0","3","1","0","44972","2017-09-14 13:18:09","2332"
"ATD9IHXHMQURL","caus_thomas_as_v2","3LWJHTCVCCNMIWT26QWH1P4I9GIFQH","6","2","2","1","1","20769","2017-09-14 13:18:14","2333"
"A2KG3W360MDBD2","caus_thomas_as_v2","3WEV0KO0OMT1XSUJ7OQW8PGYFRNSD8","7","2","0","1","1","32547","2017-09-14 13:18:14","2334"
"A14M2EERU7E8KD","caus_thomas_as_v2","39ZSFO5CA8XUFRMF6P77QOTZ584UJ3","6","2","0","1","1","64154","2017-09-14 13:18:14","2335"
"A29EL77Y1V21Q7","caus_thomas_as_v2","39LOEL67OS6LWGDD01EFEPULCKR83Q","5","2","1","1","1","10402","2017-09-14 13:18:18","2336"
"AMUV60QYHNUR3","caus_thomas_as_v2","3JPSL1DZ5S06J8Z2FII8JUYM7PINAP","1","1","1","0","0","16529","2017-09-14 13:18:20","2337"
"A2NHIKI290Q7ML","caus_thomas_as_v2","30OG32W0SUC99LGEVNKUFDODS4GNEK","5","1","1","0","0","17396","2017-09-14 13:18:21","2338"
"AIM6UIPPVF05M","caus_thomas_as_v2","3XIQGXAUMC9TC0F8ALTX75NU8VLX7R","7","3","0","0","1","33620","2017-09-14 13:18:22","2339"
"ATD9IHXHMQURL","caus_thomas_as_v2","3LWJHTCVCCNMIWT26QWH1P4I9GIFQH","6","0","3","1","0","6967","2017-09-14 13:18:22","2340"
"A39A7S4KY5TLW7","caus_thomas_as_v2","36PW28KO4ZX2P2MPMJFPT74DTXHAEN","1","3","0","0","1","157347","2017-09-14 13:18:23","2341"
"A3U0K4A3LQXQO4","caus_thomas_as_v2","3QAVNHZ3EM5GV8WH352T62UX2UIALA","4","1","2","0","0","16555","2017-09-14 13:18:24","2342"
"A1DY3TBDY4VZG5","caus_thomas_as_v2","3HYA4D452RK5QDRH4F6G576FTA4F23","3","2","0","1","1","19764","2017-09-14 13:18:25","2343"
"AMUV60QYHNUR3","caus_thomas_as_v2","3JPSL1DZ5S06J8Z2FII8JUYM7PINAP","1","0","2","1","0","4343","2017-09-14 13:18:25","2344"
"AMUV60QYHNUR3","caus_thomas_as_v2","3JPSL1DZ5S06J8Z2FII8JUYM7PINAP","2","3","3","0","1","2364","2017-09-14 13:18:28","2345"
"A29EL77Y1V21Q7","caus_thomas_as_v2","39LOEL67OS6LWGDD01EFEPULCKR83Q","5","0","2","1","0","10629","2017-09-14 13:18:30","2346"
"A2KG3W360MDBD2","caus_thomas_as_v2","3WEV0KO0OMT1XSUJ7OQW8PGYFRNSD8","7","1","1","0","0","17145","2017-09-14 13:18:32","2347"
"AOO53KIMNLQNM
","caus_thomas_as_v2","3M1CVSFP606RM5CUVAAPNOTRC05QAF","2","3","1","0","1","46738","2017-09-14 13:18:34","2348"
"A1DY3TBDY4VZG5","caus_thomas_as_v2","3HYA4D452RK5QDRH4F6G576FTA4F23","7","1","1","0","0","7768","2017-09-14 13:18:34","2349"
"A2NHIKI290Q7ML","caus_thomas_as_v2","30OG32W0SUC99LGEVNKUFDODS4GNEK","4","2","2","1","1","12553","2017-09-14 13:18:34","2350"
"AIM6UIPPVF05M","caus_thomas_as_v2","3XIQGXAUMC9TC0F8ALTX75NU8VLX7R","6","2","1","1","1","17825","2017-09-14 13:18:36","2351"
"A14M2EERU7E8KD","caus_thomas_as_v2","39ZSFO5CA8XUFRMF6P77QOTZ584UJ3","5","1","1","0","0","20949","2017-09-14 13:18:36","2352"
"A39A7S4KY5TLW7","caus_thomas_as_v2","36PW28KO4ZX2P2MPMJFPT74DTXHAEN","1","0","1","1","0","13587","2017-09-14 13:18:37","2353"
"A29EL77Y1V21Q7","caus_thomas_as_v2","39LOEL67OS6LWGDD01EFEPULCKR83Q","7","3","3","0","1","7836","2017-09-14 13:18:39","2354"
"A1DY3TBDY4VZG5","caus_thomas_as_v2","3HYA4D452RK5QDRH4F6G576FTA4F23","7","3","2","0","1","7972","2017-09-14 13:18:43","2355"
"A3ESZWJBD8M1Z","caus_thomas_as_v2","3F6KKYWMNB24HF2EZS9A9V6SSSFNDR","4","2","0","1","1","67113","2017-09-14 13:18:43","2356"
"A39A7S4KY5TLW7","caus_thomas_as_v2","36PW28KO4ZX2P2MPMJFPT74DTXHAEN","3","2","2","1","1","5880","2017-09-14 13:18:44","2357"
"A14M2EERU7E8KD","caus_thomas_as_v2","39ZSFO5CA8XUFRMF6P77QOTZ584UJ3","5","3","2","0","1","7442","2017-09-14 13:18:45","2358"
"A2KG3W360MDBD2","caus_thomas_as_v2","3WEV0KO0OMT1XSUJ7OQW8PGYFRNSD8","7","3","2","0","1","13430","2017-09-14 13:18:47","2359"
"A2NHIKI290Q7ML","caus_thomas_as_v2","30OG32W0SUC99LGEVNKUFDODS4GNEK","5","3","3","0","1","13218","2017-09-14 13:18:49","2360"
"A2POM9ROYTK7NO","caus_thomas_as_v2","3HFNH7HEMHFSWWPXHA2ZJA4UAVIQGR","1","2","0","1","1","34510","2017-09-14 13:18:49","2361"
"A14NSVH4W27CK0","caus_thomas_as_v2","3VHP9MDGRNLIOVJJ18VMHKF151HCF9","4","2","0","1","1","43573","2017-09-14 13:18:50","2362"
"AIM6UIPPVF05M","caus_thomas_as_v2","3XIQGXAUMC9TC0F8ALTX75NU8VLX7R","6","0","2","1","0","7140","2017-09-14 13:18:50","2363"
"A1DY3TBDY4VZG5","caus_thomas_as_v2","3HYA4D452RK5QDRH4F6G576FTA4F23","5","0","3","1","0","8301","2017-09-14 13:18:52","2364"
"AOO53KIMNLQNM
","caus_thomas_as_v2","3M1CVSFP606RM5CUVAAPNOTRC05QAF","3","1","2","0","0","17919","2017-09-14 13:18:52","2365"
"A2YJQUHFIXNOY0","caus_thomas_as_v2","3570Y55XZPK15YGJ8KJTWW7W94YYG1","3","0","0","1","0","38169","2017-09-14 13:18:54","2366"
"A14M2EERU7E8KD","caus_thomas_as_v2","39ZSFO5CA8XUFRMF6P77QOTZ584UJ3","4","0","3","1","0","9091","2017-09-14 13:18:55","2367"
"AU2NVT51E749C","caus_thomas_as_v2","386PBUZZXFYRW1ZLXBF6Z1XGSHCJLZ","4","2","0","1","1","32461","2017-09-14 13:18:55","2368"
"A39A7S4KY5TLW7","caus_thomas_as_v2","36PW28KO4ZX2P2MPMJFPT74DTXHAEN","0","1","3","0","0","11600","2017-09-14 13:18:56","2369"
"A2KG3W360MDBD2","caus_thomas_as_v2","3WEV0KO0OMT1XSUJ7OQW8PGYFRNSD8","7","0","3","1","0","11212","2017-09-14 13:18:59","2370"
"ATADQXPHL10Y8","caus_thomas_as_v2","386PBUZZXFYRW1ZLXBF6Z1XGSHCLJ1","6","2","0","1","1","16514","2017-09-14 13:18:59","2371"
"A2POM9ROYTK7NO","caus_thomas_as_v2","3HFNH7HEMHFSWWPXHA2ZJA4UAVIQGR","1","0","1","1","0","11335","2017-09-14 13:19:01","2372"
"A1EMMTSHSQFI6
","caus_thomas_as_v2","3RGU30DZTA9B2JH6XNGLZEC5SM2JM1","6","2","0","1","1","23999","2017-09-14 13:19:02","2373"
"AIM6UIPPVF05M","caus_thomas_as_v2","3XIQGXAUMC9TC0F8ALTX75NU8VLX7R","7","1","3","0","0","9228","2017-09-14 13:19:02","2374"
"AOO53KIMNLQNM
","caus_thomas_as_v2","3M1CVSFP606RM5CUVAAPNOTRC05QAF","3","2","3","1","1","9884","2017-09-14 13:19:03","2375"
"A14NSVH4W27CK0","caus_thomas_as_v2","3VHP9MDGRNLIOVJJ18VMHKF151HCF9","5","0","1","1","0","12633","2017-09-14 13:19:04","2376"
"ATADQXPHL10Y8","caus_thomas_as_v2","386PBUZZXFYRW1ZLXBF6Z1XGSHCLJ1","6","0","1","1","0","6644","2017-09-14 13:19:07","2377"
"ATADQXPHL10Y8","caus_thomas_as_v2","386PBUZZXFYRW1ZLXBF6Z1XGSHCLJ1","7","3","2","0","1","1957","2017-09-14 13:19:10","2378"
"AU2NVT51E749C","caus_thomas_as_v2","386PBUZZXFYRW1ZLXBF6Z1XGSHCJLZ","7","3","1","0","1","14591","2017-09-14 13:19:11","2379"
"ATADQXPHL10Y8","caus_thomas_as_v2","386PBUZZXFYRW1ZLXBF6Z1XGSHCLJ1","5","1","3","0","0","1536","2017-09-14 13:19:12","2380"
"A2POM9ROYTK7NO","caus_thomas_as_v2","3HFNH7HEMHFSWWPXHA2ZJA4UAVIQGR","1","3","2","0","1","11105","2017-09-14 13:19:13","2381"
"AIEKCWYZTS41V","caus_thomas_as_v2","3ZPBJO59KP2C7JG3WUEX4B9W6G6DH8","4","2","0","1","1","42886","2017-09-14 13:19:15","2382"
"A14NSVH4W27CK0","caus_thomas_as_v2","3VHP9MDGRNLIOVJJ18VMHKF151HCF9","0","3","2","0","1","10889","2017-09-14 13:19:15","2383"
"A3U0K4A3LQXQO4","caus_thomas_as_v2","3QAVNHZ3EM5GV8WH352T62UX2UIALA","3","3","3","0","1","50136","2017-09-14 13:19:15","2384"
"A1MM8TSLCHVMNK","caus_thomas_as_v2","333U7HK6I9G8YPBTKUHIGOPBJ8ADJD","6","3","0","0","1","43239","2017-09-14 13:19:22","2385"
"A3ESZWJBD8M1Z","caus_thomas_as_v2","3F6KKYWMNB24HF2EZS9A9V6SSSFNDR","4","0","1","1","0","38239","2017-09-14 13:19:22","2386"
"AU2NVT51E749C","caus_thomas_as_v2","386PBUZZXFYRW1ZLXBF6Z1XGSHCJLZ","5","1","2","0","0","10587","2017-09-14 13:19:22","2387"
"A2POM9ROYTK7NO","caus_thomas_as_v2","3HFNH7HEMHFSWWPXHA2ZJA4UAVIQGR","1","1","3","0","0","9977","2017-09-14 13:19:24","2388"
"A14NSVH4W27CK0","caus_thomas_as_v2","3VHP9MDGRNLIOVJJ18VMHKF151HCF9","8","1","3","0","0","10103","2017-09-14 13:19:27","2389"
"A1EMMTSHSQFI6
","caus_thomas_as_v2","3RGU30DZTA9B2JH6XNGLZEC5SM2JM1","6","0","1","1","0","23662","2017-09-14 13:19:27","2390"
"AIEKCWYZTS41V","caus_thomas_as_v2","3ZPBJO59KP2C7JG3WUEX4B9W6G6DH8","2","0","1","1","0","13904","2017-09-14 13:19:30","2391"
"A2YJQUHFIXNOY0","caus_thomas_as_v2","3570Y55XZPK15YGJ8KJTWW7W94YYG1","3","2","1","1","1","36396","2017-09-14 13:19:32","2392"
"A3L4RJUHA0CJEA","caus_thomas_as_v2","351SEKWQS0IYZXHENRUAWGHSN25DMH","4","1","0","0","0","29460","2017-09-14 13:19:33","2393"
"AU2NVT51E749C","caus_thomas_as_v2","386PBUZZXFYRW1ZLXBF6Z1XGSHCJLZ","4","0","3","1","0","10841","2017-09-14 13:19:34","2394"
"AIEKCWYZTS41V","caus_thomas_as_v2","3ZPBJO59KP2C7JG3WUEX4B9W6G6DH8","1","3","2","0","1","7163","2017-09-14 13:19:38","2395"
"A19ED8FYO6CA36","caus_thomas_as_v2","3R9WASFE2ZHVWOUTTMFUSIGMEJ3FZB","7","3","0","0","1","48473","2017-09-14 13:19:45","2396"
"A1EMMTSHSQFI6
","caus_thomas_as_v2","3RGU30DZTA9B2JH6XNGLZEC5SM2JM1","6","1","2","0","0","17595","2017-09-14 13:19:45","2397"
"A3D0GZZ2R6JU5U","caus_thomas_as_v2","3DIP6YHAPCTO6ETAPLVBXGYI39H8EH","0","2","0","1","1","27069","2017-09-14 13:19:49","2398"
"A3L4RJUHA0CJEA","caus_thomas_as_v2","351SEKWQS0IYZXHENRUAWGHSN25DMH","6","3","1","0","1","17428","2017-09-14 13:19:51","2399"
"AIEKCWYZTS41V","caus_thomas_as_v2","3ZPBJO59KP2C7JG3WUEX4B9W6G6DH8","1","1","3","0","0","15550","2017-09-14 13:19:55","2400"
"AEI5USUUPBU2G","caus_thomas_as_v2","3J2UYBXQQLD2BAVSOZZYSD0N3DH607","6","2","0","1","1","29570","2017-09-14 13:19:55","2401"
"A3ESZWJBD8M1Z","caus_thomas_as_v2","3F6KKYWMNB24HF2EZS9A9V6SSSFNDR","4","1","2","0","0","32290","2017-09-14 13:19:55","2402"
"A1MM8TSLCHVMNK","caus_thomas_as_v2","333U7HK6I9G8YPBTKUHIGOPBJ8ADJD","4","0","1","1","0","36120","2017-09-14 13:19:59","2403"
"A1EMMTSHSQFI6
","caus_thomas_as_v2","3RGU30DZTA9B2JH6XNGLZEC5SM2JM1","6","3","3","0","1","13828","2017-09-14 13:20:00","2404"
"A3L4RJUHA0CJEA","caus_thomas_as_v2","351SEKWQS0IYZXHENRUAWGHSN25DMH","4","0","2","1","0","12326","2017-09-14 13:20:05","2405"
"A19ED8FYO6CA36","caus_thomas_as_v2","3R9WASFE2ZHVWOUTTMFUSIGMEJ3FZB","5","1","1","0","0","21029","2017-09-14 13:20:07","2406"
"A2ZBKJCZPT4Z0V","caus_thomas_as_v2","3DOCMVPBTNFD3RTROMND50IM6WHNN9","2","0","0","1","0","31909","2017-09-14 13:20:08","2407"
"A8HSPSD88CUTS","caus_thomas_as_v2","3X87C8JFV6CVM1YOCAWG8ONXY6CSQD","6","1","0","0","0","34663","2017-09-14 13:20:10","2408"
"A3D0GZZ2R6JU5U","caus_thomas_as_v2","3DIP6YHAPCTO6ETAPLVBXGYI39H8EH","0","0","1","1","0","20252","2017-09-14 13:20:10","2409"
"A1MM8TSLCHVMNK","caus_thomas_as_v2","333U7HK6I9G8YPBTKUHIGOPBJ8ADJD","5","1","2","0","0","11094","2017-09-14 13:20:11","2410"
"A1BRZQH2FH6MHY","caus_thomas_as_v2","3A1COHJ8NJW0QOKCFM3HIJVVVP98HX","4","1","0","0","0","23092","2017-09-14 13:20:11","2411"
"A3JIXUMSPOB36C","caus_thomas_as_v2","3PQ8K71NHXLZZP5D6ED3XOEM8IJAAS","0","1","0","0","0","26327","2017-09-14 13:20:11","2412"
"A2YJQUHFIXNOY0","caus_thomas_as_v2","3570Y55XZPK15YGJ8KJTWW7W94YYG1","6","1","2","0","0","42473","2017-09-14 13:20:15","2413"
"A3L4RJUHA0CJEA","caus_thomas_as_v2","351SEKWQS0IYZXHENRUAWGHSN25DMH","4","2","3","1","1","12754","2017-09-14 13:20:18","2414"
"AEI5USUUPBU2G","caus_thomas_as_v2","3J2UYBXQQLD2BAVSOZZYSD0N3DH607","6","0","1","1","0","22848","2017-09-14 13:20:19","2415"
"A3ESZWJBD8M1Z","caus_thomas_as_v2","3F6KKYWMNB24HF2EZS9A9V6SSSFNDR","4","3","3","0","1","23080","2017-09-14 13:20:19","2416"
"A1MM8TSLCHVMNK","caus_thomas_as_v2","333U7HK6I9G8YPBTKUHIGOPBJ8ADJD","3","2","3","1","1","9104","2017-09-14 13:20:21","2417"
"A19ED8FYO6CA36","caus_thomas_as_v2","3R9WASFE2ZHVWOUTTMFUSIGMEJ3FZB","5","0","2","1","0","16492","2017-09-14 13:20:24","2418"
"A2ZBKJCZPT4Z0V","caus_thomas_as_v2","3DOCMVPBTNFD3RTROMND50IM6WHNN9","1","2","1","1","1","15690","2017-09-14 13:20:25","2419"
"A8HSPSD88CUTS","caus_thomas_as_v2","3X87C8JFV6CVM1YOCAWG8ONXY6CSQD","6","2","1","1","1","14899","2017-09-14 13:20:25","2420"
"A2YJQUHFIXNOY0","caus_thomas_as_v2","3570Y55XZPK15YGJ8KJTWW7W94YYG1","6","3","3","0","1","9600","2017-09-14 13:20:26","2421"
