"subject","version","assignmentId","rating","rating2","question_ind","trial_ind","focal_high","alt_high","alt2_high","greenSecond","rt","stamp","id"
"A21KXWKFWGBCZ3","caus_thomas_fire_v5","3M23Y66PO282CJF4X1II2J66443S6N","1","1","0","0","1","0","1",,"9634","2017-10-16 16:08:15","23193"
"A1ZDR2UN7M92LI
","caus_thomas_fire_v5","39GAF6DQWR1NXPVBLQB6IAZWVXHV1X","6","6","0","0","0","1","0",,"5846","2017-10-16 16:08:27","23194"
"A1BEBN58T1E0TH","caus_thomas_fire_v5","3ZDAD0O1T1EGAYCFNOWYC1FC3RGXTB","8","8","0","0","0","1","0",,"11195","2017-10-16 16:08:58","23195"
"A1BQCRF5Q76YFY
","caus_thomas_fire_v5","3PM8NZGV8YH3IIKN6K237W4PJKHXQX","8","8","0","0","1","0","1",,"14344","2017-10-16 16:08:58","23196"
"A17J1CE7N49Z9D","caus_thomas_fire_v5","3K9FOBBF2HKNFRQ6C97YS8EX70KNLE","4","4","0","0","0","1","0",,"6739","2017-10-16 16:09:02","23197"
"A23JA6ICO4BPQ5","caus_thomas_fire_v5","3483FV8BEEK97KY63M3CB1T26A562Z","4","6","0","0","1","0","0",,"10151","2017-10-16 16:09:04","23198"
"AKPXWXJFLHM08","caus_thomas_fire_v5","39L1G8WVWQS3LGTS1G50ZF7D4DP137","5","5","0","0","1","0","1",,"4423","2017-10-16 16:09:05","23199"
"A3K43RI91Y567E","caus_thomas_fire_v5","3FE7TXL1LIO2H2HQIVHAH6AT6BGQ2F","6","4","0","0","0","1","1",,"21340","2017-10-16 16:09:10","23200"
"A1RXG8RE0SJ4LC","caus_thomas_fire_v5","3A0EX8ZRN8P5EH88SYRFVLGZZQAYBS","8","8","0","0","0","1","1",,"15154","2017-10-16 16:09:10","23201"
"A1P458P1C6JOXP","caus_thomas_fire_v5","3PB5A5BD0V7IQEKILBTTJJNZB4TG7Q","8","8","0","0","0","1","1",,"22175","2017-10-16 16:09:12","23202"
"ADAGUJNWMEPT6","caus_thomas_fire_v5","339ANSOTR53KHKXXUTI58051W1LIKQ","6","6","0","0","0","1","1",,"20079","2017-10-16 16:09:17","23203"
"A241PV6A122I5X","caus_thomas_fire_v5","3VBEN272MK049C4A9ER4EAJVYI6SGP","4","4","0","0","0","1","0",,"7728","2017-10-16 16:09:24","23204"
"AH31QLJ57XC8W","caus_thomas_fire_v5","39PAAFCODM1O697KN9VGOGIRNG8VT6","6","7","0","0","1","0","1",,"8731","2017-10-16 16:09:25","23205"
"A3TK7HVFEKB00R","caus_thomas_fire_v5","33C7UALJVLZPMDZYDX0WQWFOKZH816","8","8","0","0","0","1","1",,"10743","2017-10-16 16:09:27","23206"
"A38ECJNH8AQKV4
","caus_thomas_fire_v5","3PQMUDRV7R7TBP79UQXTVKQO4XWIIF","5","5","0","0","1","0","0",,"23039","2017-10-16 16:09:28","23207"
"A3GHK21QETWLZJ","caus_thomas_fire_v5","3LOZAJ85YDEMQZI249C2BE6M3E42XP","6","7","0","0","1","0","0",,"23776","2017-10-16 16:09:31","23208"
"A3IR7DFEKLLLO","caus_thomas_fire_v5","386PBUZZXFYRW1ZLXBF6Z1XGYGFLJ8","6","6","0","0","1","0","1",,"11657","2017-10-16 16:09:31","23209"
"AB5976B6VKZYC","caus_thomas_fire_v5","32UTUBMZ7GXOAND3NN4VOMC5H98VBG","6","6","0","0","1","0","1",,"21623","2017-10-16 16:09:31","23210"
"A2R0Y8A3SSZ30S","caus_thomas_fire_v5","3R08VXYT7CWEN0AI0GXB5M9N5SJW75","8","4","0","0","0","1","0",,"13125","2017-10-16 16:09:33","23211"
"A239EUWY6SNDEZ","caus_thomas_fire_v5","3HUTX6F6VUOZWQ4A3IP6S1FTRAZ2OK","6","6","0","0","0","1","0",,"10064","2017-10-16 16:09:34","23212"
"A1CM612SSQU5L","caus_thomas_fire_v5","33NF62TLXJ3GCVH3CB35K1K19GAKJ4","8","8","0","0","1","0","0",,"23995","2017-10-16 16:09:41","23213"
"ADLF8HVS3C7IL","caus_thomas_fire_v5","3QXNC7EIPIWPTTXQM62ACNRPZDT90T","7","5","0","0","0","1","0",,"14367","2017-10-16 16:09:42","23214"
"A191F96P1GIVKX","caus_thomas_fire_v5","34T446B1C0FRRR4TYQC1EDSX5YW0C1","7","7","0","0","1","0","0",,"20658","2017-10-16 16:09:47","23215"
"A6B8DOH3KV5SL","caus_thomas_fire_v5","3QBD8R3Z21K9Z4JX7W8ULGCRBOUO41","7","7","0","0","0","1","0",,"23327","2017-10-16 16:09:50","23216"
"A3EPDU2O2JMR50","caus_thomas_fire_v5","3SBEHTYCWN4F1PMEY8JWH8KCUGUIYL","8","8","0","0","1","0","1",,"16672","2017-10-16 16:09:51","23217"
"AGON2ML5JT2OI","caus_thomas_fire_v5","3Y5140Z9DXHLSBUD7LND4HR0QBRIPR","6","6","0","0","1","0","1",,"24602","2017-10-16 16:10:02","23218"
"A26EZ702FBTS56","caus_thomas_fire_v5","3ZY8KE4ISJ4BETFS651LJB74399QVN","6","4","0","0","1","0","0",,"10317","2017-10-16 16:10:04","23219"
"AS3YLN1NMQ3T9","caus_thomas_fire_v5","3VNXK88KKCJ5MUY6P3QZXGHFT95V96","8","8","0","0","1","0","0",,"20371","2017-10-16 16:10:07","23220"
"A26SF9CTNKKBYB","caus_thomas_fire_v5","3S96KQ6I9M52CS7YWOVMIUCKN95DTQ","8","8","0","0","1","0","0",,"24018","2017-10-16 16:10:10","23221"
"A1WPXQWFALCA65","caus_thomas_fire_v5","3MAOD8E57QBIFL7VQSAM329KE9UNX0","8","8","0","0","1","0","0",,"27855","2017-10-16 16:10:11","23222"
"A389LTO1Q8DAKN","caus_thomas_fire_v5","3WMOAN2SRBYQBW20QD94FHCZYYMNVX","8","8","0","0","1","0","0",,"28243","2017-10-16 16:10:12","23223"
"A24ZAX5O63WVNI","caus_thomas_fire_v5","34Z02EIMISE8D864KC7R3NS1TKVT0C","6","6","0","0","1","0","1",,"18885","2017-10-16 16:10:13","23224"
"A2UVD05SNXJBTF","caus_thomas_fire_v5","39GAF6DQWR1NXPVBLQB6IAZWVXI1V4","8","8","0","0","1","0","1",,"20355","2017-10-16 16:10:15","23225"
"A3JGW4RGO86NPX","caus_thomas_fire_v5","32AT8R96GLANEU55TJGLIPKM7QLSUP","6","4","0","0","0","1","0",,"33331","2017-10-16 16:10:16","23226"
"AKY00Z7IB63UV","caus_thomas_fire_v5","3YGXWBAF70I8QFMUHRZ3QGIAMAC4CL","8","8","0","0","0","1","0",,"16803","2017-10-16 16:10:16","23227"
"A39ROW50DWRRKT","caus_thomas_fire_v5","3ON104KXQKXH4DSZYIZ42APDEQTW4L","4","4","0","0","0","1","1",,"7072","2017-10-16 16:10:18","23228"
"A1L2N1X8U8Z3W7","caus_thomas_fire_v5","35LDD5557A56D3NOF8GX0TCIDA6MKB","5","5","0","0","0","1","1",,"15899","2017-10-16 16:10:24","23229"
"A2B6PP2KXD19N6","caus_thomas_fire_v5","3R5F3LQFV2LP217MSPYKFCP0CJXZOO","6","6","0","0","0","1","0",,"22428","2017-10-16 16:10:27","23230"
" AOTUGFGVVZMSQ","caus_thomas_fire_v5","38JBBYETQOBNND68DI5YG4ID7MP4EE","8","8","0","0","0","1","1",,"19538","2017-10-16 16:10:28","23231"
"AWDU600NXZ26L","caus_thomas_fire_v5","32EYX73OY0ABDF5SEUGGSFFQLO2UR3","8","8","0","0","0","1","1",,"27548","2017-10-16 16:10:30","23232"
"A0657006AJFWB5ZA91B2","caus_thomas_fire_v5","354GIDR5ZB77XZ9DMAJHJCQWW9Z008","6","6","0","0","0","1","1",,"27449","2017-10-16 16:10:33","23233"
"A2FOOQ0376XKCO","caus_thomas_fire_v5","3X3OR7WPZZ12CK3267IFABO2I5M8LC","5","5","0","0","0","1","1",,"27862","2017-10-16 16:10:34","23234"
"A1EJS3MIGVI4M6","caus_thomas_fire_v5","3QAPZX2QN4EET9CR1XNV20JBT7J02S","4","4","0","0","1","0","0",,"31339","2017-10-16 16:10:38","23235"
"A2CY1G4VJV3G85","caus_thomas_fire_v5","3G2UL9A02DFGTLVC9YK77SAAHQR67F","8","8","0","0","0","1","1",,"45120","2017-10-16 16:10:38","23236"
"A36W1S4Z2LSNTC","caus_thomas_fire_v5","3LO69W1SU3EH5Z9KP5U32O506OZGL0","8","8","0","0","1","0","1",,"34493","2017-10-16 16:10:38","23237"
"A2EBNMFLUR2SQF","caus_thomas_fire_v5","3LWJHTCVCCNMIWT26QWH1P4IFFLQFZ","8","7","0","0","1","0","0",,"17552","2017-10-16 16:10:42","23238"
"A2P5IL629E7EC8","caus_thomas_fire_v5","326O153BMIZ0N9P16T6RJ8CJKZIED1","8","8","0","0","0","1","0",,"17068","2017-10-16 16:10:43","23239"
"A6VQ0UN0ETESM","caus_thomas_fire_v5","3Z9WI9EOZZPKLPMDOB0K8O4MWO6KHZ","8","8","0","0","1","0","1",,"42604","2017-10-16 16:10:44","23240"
"A3QN9B9ZS1CWWM","caus_thomas_fire_v5","3U4J9857OECMZXC75P1FI8W2VR2B75","5","5","0","0","1","0","0",,"20161","2017-10-16 16:10:44","23241"
"A2HIPDBIQTFGAX","caus_thomas_fire_v5","374TNBHA8BWSINAXBGO5QABYLQBYQ4","4","3","0","0","0","1","0",,"7119","2017-10-16 16:10:48","23242"
"A24DSECWUBZC0Z","caus_thomas_fire_v5","3BEFOD78W6ULZ1YLUGTHTCNMGOG4M3","8","8","0","0","1","0","0",,"21366","2017-10-16 16:10:53","23243"
"AK9XE112RZO6Q","caus_thomas_fire_v5","3NQL1CS15R9KNV6EXFIFWXA62IQYVY","8","8","0","0","0","1","0",,"14152","2017-10-16 16:10:55","23244"
"A2UKVP21FXQ5BA
","caus_thomas_fire_v5","33LKR6A5KEL8KXRMGVBRHSBBYC21TO","6","6","0","0","1","0","0",,"21921","2017-10-16 16:11:01","23245"
"A3PV8HAHROZ3RY","caus_thomas_fire_v5","32KTQ2V7RDGMW74XBBP8AKY22GU9M4","8","8","0","0","1","0","0",,"21307","2017-10-16 16:11:02","23246"
"A30R3WV69IZX6I","caus_thomas_fire_v5","30LB5CDZNCB4ZKF3Q4W9PBTIEGI0Z0","4","4","0","0","1","0","0",,"26660","2017-10-16 16:11:03","23247"
"A1SHLCA57M79E6","caus_thomas_fire_v5","3ZGVPD4G6TI5FTCUO6KJ9MVNBRETZ4","5","5","0","0","0","1","1",,"36203","2017-10-16 16:11:07","23248"
"A1BAEFJ2OG7NJ0","caus_thomas_fire_v5","3TMFV4NEP8FINEF1ALPHJM5IGCPW8S","4","4","0","0","0","1","1",,"23811","2017-10-16 16:11:17","23249"
"A1153ONO49N24LO","caus_thomas_fire_v5","3ITXP059PWKE0EUBHKC7BNBBQANSJT","8","8","0","0","0","1","1",,"74550","2017-10-16 16:11:18","23250"
"A1R37XA9QPSIAN","caus_thomas_fire_v5","30BUDKLTXDW5JWA8RNO8LWOR7IKE5T","6","6","0","0","0","1","0",,"24739","2017-10-16 16:11:19","23251"
"A26XF8O4XRL8JA
","caus_thomas_fire_v5","3SB4CE2TJVWBV2D6HO5HHWPKF2WAX4","6","6","0","0","1","0","1",,"26010","2017-10-16 16:11:21","23252"
"A2K7AVZWEC9B14","caus_thomas_fire_v5","3LO69W1SU3EH5Z9KP5U32O506OYLG4","8","8","0","0","1","0","1",,"32921","2017-10-16 16:11:22","23253"
"A2PDDOU75JXTN7","caus_thomas_fire_v5","3R6BYFZZP7D6RTUES4R9VX0BCI9FXM","6","8","0","0","1","0","1",,"16276","2017-10-16 16:11:28","23254"
"A25NRZFFVPNH1B","caus_thomas_fire_v5","3R2PKQ87NW9F78X0F5VLNDX5L6HMI0","6","8","0","0","1","0","0",,"40310","2017-10-16 16:11:29","23255"
"A3445FTO62DGIX","caus_thomas_fire_v5","3TE22NPXPBD5VB9FOCTL7I6MUXV448","6","6","0","0","1","0","0",,"29045","2017-10-16 16:11:35","23256"
"A2E2UARVOVDR9Y","caus_thomas_fire_v5","3FTOP5WARFPEZ5AZ8ITN1H5SVI4J0X","4","4","0","0","0","1","0",,"9524","2017-10-16 16:11:36","23257"
"A3O3RIY1ELZ6YR","caus_thomas_fire_v5","3Z2R0DQ0JHFDKZRL94MANPLFN8TE2S","0","0","0","0","0","1","1",,"11106","2017-10-16 16:11:37","23258"
"A1CC1ESUM2JWJ2
","caus_thomas_fire_v5","3E4GGUZ1T8SG6ZJV5QXDLKYK75PK2I","0","8","0","0","1","0","0",,"14334","2017-10-16 16:11:40","23259"
"ADA0ASXIKB9C2","caus_thomas_fire_v5","39L1G8WVWQS3LGTS1G50ZF7D4DP319","8","8","0","0","1","0","0",,"30906","2017-10-16 16:11:41","23260"
"A1PKCBFB4QY19G","caus_thomas_fire_v5","3CPLWGV3MO0SEPPXNC48NZN2764N9I","8","8","0","0","0","1","1",,"16702","2017-10-16 16:11:41","23261"
"A18RC3AV8098WD","caus_thomas_fire_v5","3OS4RQUCR9GZEQRDN8ZR609JTFLBF9","7","7","0","0","1","0","0",,"24748","2017-10-16 16:11:42","23262"
"A2UGM73EHLK6XI","caus_thomas_fire_v5","324G5B4FB39LFA9X794QYR0J4N570F","1","8","0","0","1","0","1",,"40541","2017-10-16 16:11:42","23263"
"A1QUBLZCONL4QD","caus_thomas_fire_v5","3S0TNUHWKTJJE8FATQKRRYGX9WK8DW","8","8","0","0","0","1","1",,"29490","2017-10-16 16:11:44","23264"
"A1A8VMLJFFGCB6","caus_thomas_fire_v5","34MAJL3QP4OKDFQBOYO2XDEGGXZ34M","8","8","0","0","0","1","0",,"23330","2017-10-16 16:11:46","23265"
"AG1G5IA3P606T","caus_thomas_fire_v5","3FE7TXL1LIO2H2HQIVHAH6AT6BHQ2G","6","6","0","0","0","1","0",,"21063","2017-10-16 16:11:48","23266"
"A2EP2TI8HE8EGK","caus_thomas_fire_v5","3KB8R4ZV1E85SQN8YS59OL9VUULGBD","7","6","0","0","1","0","1",,"13634","2017-10-16 16:11:50","23267"
"A2MQGU4NZZ8V0H
","caus_thomas_fire_v5","31IBVUNM9S0EN4PJSPQR7C3QW71FVJ","4","4","0","0","0","1","1",,"20628","2017-10-16 16:11:54","23268"
"AV0NB9Q2CBS88","caus_thomas_fire_v5","3OF2M9AATGP6CAM7UX6R8V8RSENZK4","8","8","0","0","0","1","0",,"36864","2017-10-16 16:11:54","23269"
"A3I840ZRUE0ATX","caus_thomas_fire_v5","3K2755HG5S4STNPX14QX1QXJW0XFDK","8","6","0","0","0","1","1",,"27919","2017-10-16 16:11:55","23270"
"A3RBT1V8BGYB2K","caus_thomas_fire_v5","3EFVCAY5L3AWHUF23M62UWBAEGH8JA","5","7","0","0","1","0","0",,"17830","2017-10-16 16:11:55","23271"
"A397157QX8JVSQ","caus_thomas_fire_v5","3Z4XG4ZF48SXCEKRKQL3L5JPPEW8XY","5","5","0","0","1","0","0",,"32806","2017-10-16 16:11:57","23272"
"A3DFMWYTKJ57L","caus_thomas_fire_v5","3X65QVEQI0O4ONTFNJYKCXKL8W7CLM","8","8","0","0","1","0","1",,"19873","2017-10-16 16:11:59","23273"
"ASXN1TE7TSOMU","caus_thomas_fire_v5","34PGFRQONOC77VBK1PM88CEWWNJWJC","8","8","0","0","0","1","0",,"30620","2017-10-16 16:12:00","23274"
"ALW83OCVEWDHC","caus_thomas_fire_v5","3LS2AMNW5FRGO96V5TF7OJDW7GDQOM","8","8","0","0","0","1","1",,"24492","2017-10-16 16:12:02","23275"
"ANPTDUX6LOGYY","caus_thomas_fire_v5","35GMH2SV3EIRR6GQW2K7U2OIODOOE7","6","6","0","0","1","0","0",,"6300","2017-10-16 16:12:03","23276"
" A3QYQSFE594CV6
","caus_thomas_fire_v5","3L0KT67Y8EH4V3PA3KDALAQZ3EWYST","8","8","0","0","1","0","1",,"54412","2017-10-16 16:12:06","23277"
"A2FPCCVXZWHGZF","caus_thomas_fire_v5","3TVRFO09GKGSRL4AEFU7QA5V9EVXL9","5","5","0","0","0","1","0",,"23988","2017-10-16 16:12:13","23278"
"A1ESYH06VN3H8U","caus_thomas_fire_v5","3TR2532VIPV9DGWEA794AIFJ8LR6JM","6","6","0","0","0","1","1",,"58821","2017-10-16 16:12:16","23279"
"ASLGHXA4453BQ","caus_thomas_fire_v5","34BBWHLWHACBCKREJ718WBZWJ8VWI1","8","8","0","0","1","0","1",,"13817","2017-10-16 16:12:18","23280"
"A3ANNQ73J8M158","caus_thomas_fire_v5","3SPJ0334214BW06KGQ4WT9ZC7VJYJD","5","8","0","0","1","0","1",,"14839","2017-10-16 16:12:21","23281"
"A1S624VSVI32QZ","caus_thomas_fire_v5","3WYP994K17SZ85RDW7A7K5U7LP0Y68","8","8","0","0","0","1","1",,"10236","2017-10-16 16:12:22","23282"
"A3V8C77FN4FLUA","caus_thomas_fire_v5","3UNH76FOCS61X8C5JNHO91RTBPFMY6","4","4","0","0","1","0","1",,"25256","2017-10-16 16:12:25","23283"
"A18VPS125O9ZE4","caus_thomas_fire_v5","3X0H8UUIT1P06YUAOJVM0D5JS6WSWO","7","7","0","0","1","0","0",,"129741","2017-10-16 16:12:29","23284"
"A11WCFPJSR5VZP","caus_thomas_fire_v5","3RGU30DZTA9B2JH6XNGLZEC5YL6MJC","8","8","0","0","0","1","1",,"34357","2017-10-16 16:12:32","23285"
"A1DBCHREMYNOVT
","caus_thomas_fire_v5","3UOUJI6MTDFVABR4NTM8HX1EM5OUX0","4","4","0","0","1","0","0",,"21365","2017-10-16 16:12:33","23286"
"A3NBJ86JRU3JQV


","caus_thomas_fire_v5","3DOCMVPBTNFD3RTROMND50IMCVLNNH","8","8","0","0","1","0","0",,"24274","2017-10-16 16:12:36","23287"
"A26ZENZ5G8AEGM","caus_thomas_fire_v5","3B4YI393V9X7ZHD14ELL3O2YMT1SSA","8","8","0","0","0","1","1",,"18851","2017-10-16 16:12:36","23288"
"A3UDXVVGJ88LS2","caus_thomas_fire_v5","3TXMY6UCAEPFFK9SFO6GTJJFI2UQCP","5","5","0","0","0","1","1",,"27583","2017-10-16 16:12:47","23289"
"AT2C9OU6PE4T7","caus_thomas_fire_v5","3QL2OFSM96JUCNW0ZWEZPPOADR7NCZ","3","3","0","0","1","0","1",,"4626","2017-10-16 16:12:48","23290"
"A3JK4DZ95IXN5P","caus_thomas_fire_v5","323Q6SJS8IH953UZN09NSBCHOSQFHT","7","7","0","0","0","1","1",,"44203","2017-10-16 16:12:48","23291"
"AD368A1RHHRC3","caus_thomas_fire_v5","3ZQIG0FLQEHGYQBEIE0RB0PQRARVWX","8","8","0","0","0","1","0",,"20004","2017-10-16 16:12:51","23292"
"A2LFT9N17HS9FX","caus_thomas_fire_v5","3JWH6J9I9SEB2I4ULWI4E5ISV66NBR","5","5","0","0","1","0","1",,"8390","2017-10-16 16:12:55","23293"
"A1EIVUU0RIGPFT","caus_thomas_fire_v5","3CFVK00FWLMF86KEDSLHQXSBCAVL62","5","4","0","0","1","0","1",,"15175","2017-10-16 16:12:55","23294"
"A1GBIPUXXESXWX","caus_thomas_fire_v5","3IFS6Q0HJIKI53A5Z2R7ZMWBDVZSII","5","5","0","0","1","0","1",,"18540","2017-10-16 16:12:57","23295"
"A1L00PO1P8D6E3","caus_thomas_fire_v5","3NXNZ5RS1AY3B4XA75NJR21C7RZ79R","8","8","0","0","0","1","0",,"34726","2017-10-16 16:12:58","23296"
"A3PIAHR6PGXZNT","caus_thomas_fire_v5","3U5NZHP4LR3LWGJT135S45QLQYDPH6","8","8","0","0","1","0","1",,"43043","2017-10-16 16:12:58","23297"
"AUOYNTK0GOFOM","caus_thomas_fire_v5","32XVDSJFPZYBWNJYQ2AT0XQOWAL2M6","6","6","0","0","0","1","1",,"23065","2017-10-16 16:13:00","23298"
"A1MA9Y6WVISU8H","caus_thomas_fire_v5","3ZOTGHDK5ICS1PL8XX4CJJSXP4YSOD","7","7","0","0","1","0","1",,"28438","2017-10-16 16:13:01","23299"
"A3P2CJ0JSJP26L","caus_thomas_fire_v5","3DEL4X4EL6MCRKB9XUJXKI7RITZYX2","2","2","0","0","0","1","0",,"12041","2017-10-16 16:13:02","23300"
"A2XTKDNUT24SE1","caus_thomas_fire_v5","3FPRZHYEPY8J7S9Q8UPP63ETTHX3VZ","4","5","0","0","1","0","1",,"19826","2017-10-16 16:13:03","23301"
"A3FCZNB9E8K3CX","caus_thomas_fire_v5","3YT88D1N08Z5RHFE9QBI4U3CDJP3KC","8","6","0","0","1","0","0",,"8535","2017-10-16 16:13:03","23302"
"A193FEHCOS0E2J","caus_thomas_fire_v5","3IAEQB9FMELU49BSRT0X5EJJR3NDWG","5","7","0","0","1","0","0",,"23404","2017-10-16 16:13:05","23303"
"A151IWEMV5XRTA","caus_thomas_fire_v5","3IJXV6UZ1XK64OASKDR29CRFRTGRIT","8","8","0","0","0","1","0",,"44384","2017-10-16 16:13:05","23304"
"A2WAOPT014BLZS","caus_thomas_fire_v5","3X4JMASXCMA8HMCNKQG63TMFNDX0BV","8","8","0","0","0","1","0",,"18419","2017-10-16 16:13:09","23305"
"A26L7403RHRQP8","caus_thomas_fire_v5","3TK8OJTYM1MQEHED6SMWJ6HUYDOVP2","5","5","0","0","0","1","1",,"14661","2017-10-16 16:13:10","23306"
"A3VGVIXUXNBUMS","caus_thomas_fire_v5","3KOPY89HM83AGX9WR5B63F3ZYUQ3JE","6","6","0","0","1","0","1",,"25790","2017-10-16 16:13:12","23307"
"A2M9D02CIVECE3","caus_thomas_fire_v5","3VFJCI1K4Z0S8X4XUPRZO0EZCGPGRR","8","8","0","0","0","1","0",,"20062","2017-10-16 16:13:13","23308"
"AZV195E9JW7ZH","caus_thomas_fire_v5","37ZHEEHM6WNHW28UQWM90PYQ7ZP73A","4","6","0","0","1","0","1",,"14771","2017-10-16 16:13:13","23309"
"AF6HPN1HUYG32","caus_thomas_fire_v5","34X6J5FLPTZ2NYFYPGN2GNWA8M3QJ3","6","6","0","0","0","1","1",,"27754","2017-10-16 16:13:14","23310"
"A21H2UDDHN8ZF","caus_thomas_fire_v5","3TU5ZICBRD2D3HJFYCQBRXNWSB8Q8I","8","8","0","0","1","0","1",,"17909","2017-10-16 16:13:23","23311"
"AO5WJXJED5LQO","caus_thomas_fire_v5","3ZR9AIQJUBAOWNRE5B6JVFG9DLG40T","5","5","0","0","0","1","1",,"22692","2017-10-16 16:13:28","23312"
"AFQGHXGL08E04
","caus_thomas_fire_v5","36H9ULYP62V5W9PPB0C84OSW1KVJF3","8","8","0","0","1","0","0",,"20849","2017-10-16 16:13:29","23313"
"AZOAPJD96KI4R","caus_thomas_fire_v5","3ATTHHXXWAPQ1KW4TCXUYUD3SA1XIV","8","8","0","0","0","1","1",,"90702","2017-10-16 16:13:36","23314"
"A19A5BP9FN5KJM","caus_thomas_fire_v5","34V1S5K3GS2K74J5OVIRLO1GCGG69S","8","8","0","0","1","0","1",,"23363","2017-10-16 16:13:37","23315"
" A3L2FPKRD46FRW
","caus_thomas_fire_v5","3GGAI1SQEVZOU5B0NVZZCAZA81XCMO","8","8","0","0","0","1","0",,"22610","2017-10-16 16:13:38","23316"
"A1X5IZPCRLL0Z7","caus_thomas_fire_v5","33FBRBDW6O099G9WTUPG7SYFOW9C81","8","8","0","0","1","0","1",,"16882","2017-10-16 16:13:40","23317"
"A1JXDMJK819P7G","caus_thomas_fire_v5","3IXEICO792K3RJSJM1N8CO2S6NHT6D","0","0","0","0","1","0","1",,"44403","2017-10-16 16:13:43","23318"
"A2BV3R7IE3F5O8","caus_thomas_fire_v5","337RC3OW0530NWZFE0TP2P8AT3NLVU","8","8","0","0","0","1","0",,"48839","2017-10-16 16:13:45","23319"
"A3DAJROQC1BLNI","caus_thomas_fire_v5","32KTQ2V7RDGMW74XBBP8AKY22GVM9I","5","5","0","0","0","1","0",,"13868","2017-10-16 16:13:51","23320"
"A1FSPD1LIOXCN1","caus_thomas_fire_v5","31EUONYN2V48TH2CRS9HU6C4O8RVOK","6","6","0","0","0","1","0",,"21673","2017-10-16 16:13:51","23321"
"A2S0MB5JFG8DF","caus_thomas_fire_v5","3Y4W8Q93LZLHPKBN1JV1JC05KUMDV7","6","6","0","0","1","0","1",,"34300","2017-10-16 16:13:55","23322"
"A63QNYB26OEZN","caus_thomas_fire_v5","33CID57104UGBNXWUQNJJUGR2JV3LG","8","8","0","0","1","0","0",,"33574","2017-10-16 16:13:57","23323"
"A2BR4ASLXH925X","caus_thomas_fire_v5","3VBEN272MK049C4A9ER4EAJVYI8GSF","6","8","0","0","1","0","1",,"31989","2017-10-16 16:13:57","23324"
"A2QMHQXR8K4VJ2","caus_thomas_fire_v5","3ZR9AIQJUBAOWNRE5B6JVFG9DLF04O","3","4","0","0","1","0","0",,"2645","2017-10-16 16:13:58","23325"
"A23GVZ7MEINT6J","caus_thomas_fire_v5","3FTF2T8WLRJI1JYBFDVVJI0T0I89WV","7","7","0","0","0","1","1",,"26907","2017-10-16 16:13:58","23326"
"A3RT82GOZ3OGJO
","caus_thomas_fire_v5","3XC1O3LBOSNLA4VQ95TA17KPWI7TLM","7","7","0","0","0","1","0",,"35780","2017-10-16 16:14:00","23327"
"A1DDBGQDMZZ1VW","caus_thomas_fire_v5","3YWRV122CS05VAQWFLAG1YKLVWFU8S","8","8","0","0","0","1","1",,"21982","2017-10-16 16:14:00","23328"
"ARJXQ2HPZKBHP","caus_thomas_fire_v5","35GCEFQ6I5P0GCE09RESR9RPHS33ZZ","4","4","0","0","0","1","0",,"23755","2017-10-16 16:14:01","23329"
"A18V3RFUE8SU7R","caus_thomas_fire_v5","3NQL1CS15R9KNV6EXFIFWXA62IRYVZ","8","8","0","0","1","0","0",,"39420","2017-10-16 16:14:02","23330"
"A32XAI3J6BNODD","caus_thomas_fire_v5","3ZV9H2YQQD8WMH9VY4ULS5X70QZ3W9","8","8","0","0","0","1","1",,"34148","2017-10-16 16:14:02","23331"
"A1AN07YXYNLRV1
","caus_thomas_fire_v5","35H6S234SA116HHTL55A98WEQKW650","6","6","0","0","0","1","0",,"16791","2017-10-16 16:14:05","23332"
"AVH8K76ZE71HD","caus_thomas_fire_v5","3570Y55XZPK15YGJ8KJTWW7WF33YGA","4","4","0","0","0","1","0",,"28418","2017-10-16 16:14:07","23333"
"A1KH1O9AZ7S642","caus_thomas_fire_v5","3907X2AHF06HHQGBII2LH1KJ1FV2P1","8","8","0","0","1","0","0",,"26585","2017-10-16 16:14:08","23334"
"A1CH6M8KNYMJ92","caus_thomas_fire_v5","3JW0YLFXRTHTDFBJ8O5NX284YJSWW7","7","7","0","0","0","1","0",,"23086","2017-10-16 16:14:11","23335"
"A156CSN48MPP69
","caus_thomas_fire_v5","32Z9ZLUT1LL3BG7SM3SDF5LVGTHOHO","5","5","0","0","1","0","0",,"31847","2017-10-16 16:14:13","23336"
"A23WT7XWIML8KH","caus_thomas_fire_v5","3WJEQKOXA83351SDAVKAMNLJANH1A3","8","8","0","0","1","0","1",,"10346","2017-10-16 16:14:18","23337"
"A3U21PUMQ6NGT2","caus_thomas_fire_v5","3LPW2N6LKT3M8S7UHN3DPEAUT6EU5Q","7","7","0","0","0","1","1",,"24720","2017-10-16 16:14:19","23338"
"A33B85TN97HQ33","caus_thomas_fire_v5","3EWIJTFFVO86OPO7UHIW41S0QAAE09","4","4","0","0","0","1","0",,"23300","2017-10-16 16:14:19","23339"
"A3SSV4IXZW7FMH","caus_thomas_fire_v5","3NGI5ARFTT6AS5YFZE27CIAE99I1PK","4","4","0","0","1","0","0",,"23457","2017-10-16 16:14:26","23340"
"A1QORHN15R6YN","caus_thomas_fire_v5","33NF62TLXJ3GCVH3CB35K1K19GCKJ6","8","8","0","0","1","0","1",,"18380","2017-10-16 16:14:32","23341"
"A2HBEHEUR3ER78","caus_thomas_fire_v5","3BDCF01OGXVHRQUKJBG99OC4BKPYLG","6","6","0","0","0","1","1",,"40464","2017-10-16 16:14:36","23342"
"A3O80DOQTSELGG
","caus_thomas_fire_v5","3Z9WI9EOZZPKLPMDOB0K8O4MWO8HKY","8","8","0","0","1","0","0",,"13214","2017-10-16 16:14:38","23343"
"A1GVHFB9F270GX","caus_thomas_fire_v5","30IQTZXKAK7FUPFOPM8OSQD76GL0X4","4","4","0","0","1","0","1",,"17735","2017-10-16 16:14:40","23344"
"A2VF6506WDNXKS","caus_thomas_fire_v5","3TS1AR6UQQFCCEONARNB1YNNAPV7FK","8","8","0","0","0","1","0",,"20771","2017-10-16 16:14:43","23345"
"A18M1IAKPX9XQT","caus_thomas_fire_v5","3NJM2BJS4W7UF88DFBRRTET5D69CPL","4","4","0","0","1","0","0",,"17994","2017-10-16 16:14:47","23346"
"A1017ODTGRN1CH","caus_thomas_fire_v5","374TNBHA8BWSINAXBGO5QABYLQCYQ5","4","7","0","0","1","0","0",,"26980","2017-10-16 16:14:52","23347"
"A2CKRHR9B0DZF1","caus_thomas_fire_v5","3HVVDCPGTET5A32PSKI0VFML5XBYTJ","8","8","0","0","1","0","0",,"37747","2017-10-16 16:14:52","23348"
"A2ZTXC0WB8DPJP","caus_thomas_fire_v5","3JC6VJ2SABK2TJTWBIMMPDY0M3N5AQ","8","8","0","0","0","1","1",,"31474","2017-10-16 16:14:54","23349"
"A3D3D3F8X3NQYH","caus_thomas_fire_v5","336YQZE83VF3VK2L8LCRY4T0GKCM5R","8","8","0","0","1","0","1",,"22923","2017-10-16 16:14:55","23350"
"ALF9AAZGQP4K5","caus_thomas_fire_v5","3I2PTA7R3TVXYILG71NEH2WNNB2KQV","7","6","0","0","0","1","1",,"49519","2017-10-16 16:14:58","23351"
"A27HVVLSZZ13XK","caus_thomas_fire_v5","3X1FV8S5JXSK14LE39W9PX32XM2GVK","8","8","0","0","0","1","0",,"29955","2017-10-16 16:14:59","23352"
"ATAHQP6QL09TX","caus_thomas_fire_v5","3HWRJOOET536PY8J3J1GE7YJL2SESV","8","8","0","0","1","0","1",,"14141","2017-10-16 16:15:09","23353"
" A22SF4E1TDPAY6","caus_thomas_fire_v5","3Z4AIRP3C6EF1E06L5CO6VWHB8R1X8","6","8","0","0","1","0","0",,"20694","2017-10-16 16:15:09","23354"
" COPIEDAJFB5KQLNYW03","caus_thomas_fire_v5","3PMBY0YE2749NLS6YMVU7OTQ82RC9Q","1","1","0","0","0","1","1",,"24318","2017-10-16 16:15:11","23355"
"A2WWCLNBO1B1KZ","caus_thomas_fire_v5","3JNQLM5FT4NRQ51DQQ9E0KBZW5UL2M","8","8","0","0","0","1","0",,"15153","2017-10-16 16:15:14","23356"
"AL6DWYE72TPK2","caus_thomas_fire_v5","3EKVH9QMEY58STDLD9BQH73UNWTD2Z","7","7","0","0","1","0","0",,"29279","2017-10-16 16:15:16","23357"
"A29FUGECANV8BT","caus_thomas_fire_v5","3S3AMIZX3U6LQB5NA20WTKCGZN6CD7","6","6","0","0","0","1","1",,"30511","2017-10-16 16:15:16","23358"
"A173E26N947Q7A","caus_thomas_fire_v5","3DY46V3X3PJ5NDHFGMV5H2IEUPM55K","8","8","0","0","0","1","0",,"18888","2017-10-16 16:15:21","23359"
"A22KRF782ELLB0","caus_thomas_fire_v5","3V0Z7YWSIY1UMAD74UBKNT91N3VV2E","7","8","0","0","1","0","1",,"29897","2017-10-16 16:15:22","23360"
"A2VGEE0ZIZ8CBQ","caus_thomas_fire_v5","3GLB5JMZFXWY7NLSCOWFJBXVXFYDGI","7","6","0","0","0","1","1",,"24474","2017-10-16 16:15:22","23361"
"AV8O84CPC5TNI","caus_thomas_fire_v5","3Z7EFSHGN9FZOHA41218NRF8F5HCX8","4","4","0","0","0","1","0",,"18673","2017-10-16 16:15:22","23362"
"A3Q4B9ETM3RUS3","caus_thomas_fire_v5","3DPNQGW4LLGJAYDT70M04GQ0QO246U","8","8","0","0","1","0","1",,"44881","2017-10-16 16:15:22","23363"
"A2C4WD51MXBPYM","caus_thomas_fire_v5","3ZY8KE4ISJ4BETFS651LJB7439BVQU","6","5","0","0","0","1","0",,"7268","2017-10-16 16:15:23","23364"
"A2HM5WU1XILZJ1","caus_thomas_fire_v5","3Z7VU45IPYI4690LMN093GCSJ8OZ12","8","8","0","0","1","0","0",,"37306","2017-10-16 16:15:25","23365"
"AQ5RHGTE75AJT
","caus_thomas_fire_v5","37TRT2X24QSFJSD96YQCLY1BMM3JBL","4","4","0","0","1","0","0",,"29813","2017-10-16 16:15:26","23366"
"A2OVIHW0FX4AJK","caus_thomas_fire_v5","3B1NLC6UGZX7WKOIHXNAJ5EKBY0PG7","6","6","0","0","0","1","1",,"25881","2017-10-16 16:15:26","23367"
"A3KF9DXMEZBAPG","caus_thomas_fire_v5","3OUYGIZWR7ZALGDX3VY7YDR44HCP05","7","7","0","0","0","1","0",,"14616","2017-10-16 16:15:30","23368"
"A25894CV44ZZ0V","caus_thomas_fire_v5","3MX2NQ3YC9VEPW1PMSE09L9YNOWX5M","4","6","0","0","1","0","1",,"23374","2017-10-16 16:15:32","23369"
"AY6G75JNE3OH","caus_thomas_fire_v5","3P1L2B7AD1Q5XCQIDO7B7XE2XARLOT","3","2","0","0","0","1","1",,"25582","2017-10-16 16:15:34","23370"
"A3517BE019BSHL","caus_thomas_fire_v5","3S0TNUHWKTJJE8FATQKRRYGX9WKD81","7","7","0","0","0","1","1",,"91694","2017-10-16 16:15:36","23371"
"A1AS9WOK2AKSJ3","caus_thomas_fire_v5","3CCZ6YKWR7KOO0JRJC8MTINGGL595F","4","4","0","0","1","0","0",,"40567","2017-10-16 16:15:39","23372"
"A2868HFLIU4V0C","caus_thomas_fire_v5","3K9FOBBF2HKNFRQ6C97YS8EX70MNLG","8","6","0","0","0","1","1",,"23013","2017-10-16 16:15:40","23373"
"A25VHX1PUAHR4T","caus_thomas_fire_v5","3A9AA95ATWN9GNZY014JF8NVLPN5P6","0","0","0","0","1","0","1",,"71191","2017-10-16 16:15:43","23374"
"AESEZX8S7Z3IC","caus_thomas_fire_v5","3AMYWKA6YBNNERNBQK19IEW57F36O7","7","7","0","0","1","0","0",,"15140","2017-10-16 16:15:45","23375"
"A1X14SEMW60XVP","caus_thomas_fire_v5","3PM8NZGV8YH3IIKN6K237W4PJKJQXS","4","4","0","0","1","0","0",,"25387","2017-10-16 16:15:48","23376"
"A3PDHDQZZKCTT5","caus_thomas_fire_v5","379J5II41OHJLLDTJA4F2LKOT8JLEN","7","6","0","0","0","1","0",,"23860","2017-10-16 16:15:48","23377"
"A1IPAZXZCRRDZU","caus_thomas_fire_v5","32EYX73OY0ABDF5SEUGGSFFQLO4UR5","5","5","0","0","0","1","1",,"20207","2017-10-16 16:15:50","23378"
"A1BBZ5EMNSCZJR
A1BBZ5EMNSCZJR","caus_thomas_fire_v5","30BUDKLTXDW5JWA8RNO8LWOR7ILE5U","4","6","0","0","1","0","1",,"30415","2017-10-16 16:15:54","23379"
"AEFQQ371NKQU8","caus_thomas_fire_v5","3TY7ZAOG5FL9APGHQ3TZ2W55A770KG","8","8","0","0","1","0","1",,"30773","2017-10-16 16:15:54","23380"
"A1ZZ7YO3YASNIP","caus_thomas_fire_v5","3GNA64GUZE5UGZ0D0EJ8FDD5QL7Q5G","7","7","0","0","1","0","0",,"8059","2017-10-16 16:15:58","23381"
"AR5E0ZVWKJA95","caus_thomas_fire_v5","351SEKWQS0IYZXHENRUAWGHST1AMDZ","7","7","0","0","0","1","1",,"17854","2017-10-16 16:16:00","23382"
"A224IWPV29ZPY4","caus_thomas_fire_v5","3H7Z272LX78NIC2JSOKQWXJS7FNLPA","7","6","0","0","0","1","0",,"34688","2017-10-16 16:16:03","23383"
"AHSQOWJG4HA3S","caus_thomas_fire_v5","3QY7M81QH7NNS0G1B2E8HBFSILAK7X","3","4","0","0","1","0","1",,"3316","2017-10-16 16:16:06","23384"
"A2K4GUKK6XU92A","caus_thomas_fire_v5","3M1CVSFP606RM5CUVAAPNOTRIZAAQ8","4","4","0","0","0","1","0",,"19704","2017-10-16 16:16:06","23385"
"A36CA84QRHPL2Z","caus_thomas_fire_v5","3OS46CRSLF0I4BW8RWNND6QD38Y6V7","6","6","0","0","1","0","1",,"18004","2017-10-16 16:16:07","23386"
"A1NPQNVXPWACT7","caus_thomas_fire_v5","3LYA37P8IQOAUCJROJQOMD1O1B1KBJ","6","6","0","0","1","0","1",,"6394","2017-10-16 16:16:11","23387"
"A3CP3V6ROWGYDF","caus_thomas_fire_v5","36WLNQG78ZB78CRHSXFLOIOJHE8EBW","8","8","0","0","0","1","1",,"11119","2017-10-16 16:16:13","23388"
"A29KUIEVPK8WB4","caus_thomas_fire_v5","3TEM0PF1Q5Y1WJA7YM7CYJAFQY8D0E","8","8","0","0","0","1","1",,"17934","2017-10-16 16:16:15","23389"
"3UTF4ZGY3","caus_thomas_fire_v5","3R5F3LQFV2LP217MSPYKFCP0CJYOZE","4","4","0","0","1","0","0",,"19617","2017-10-16 16:16:17","23390"
"A2T8JMVLZ5CBPL","caus_thomas_fire_v5","3DBQWDE4Y6Z9D2NLKMRRBJI0LAMN5S","8","8","0","0","1","0","0",,"31029","2017-10-16 16:16:19","23391"
"ALZVG5501Y5IX","caus_thomas_fire_v5","31IBVUNM9S0EN4PJSPQR7C3QW70VFY","8","5","0","0","1","0","0",,"18279","2017-10-16 16:16:19","23392"
"A2FBP73AQACKZ2","caus_thomas_fire_v5","3J88R45B2GZII6J867NE7REFEOWPXZ","7","7","0","0","0","1","0",,"24585","2017-10-16 16:16:21","23393"
"ADGE1P244LWYU","caus_thomas_fire_v5","3VP0C6EFSGXZEO2ZD4MWQA70CFNM67","4","7","0","0","1","0","1",,"39531","2017-10-16 16:16:28","23394"
"A29U4ZQRLMIB61","caus_thomas_fire_v5","3NXNZ5RS1AY3B4XA75NJR21C7R197V","8","5","0","0","0","1","0",,"17370","2017-10-16 16:16:30","23395"
"A7KLTVEIASF4J","caus_thomas_fire_v5","3XXU1SWE8MW3YC7VECGA8I295VB0AZ","5","7","0","0","1","0","1",,"3372","2017-10-16 16:16:31","23396"
"A2ONJRLG4R4KTQ","caus_thomas_fire_v5","3Z4XG4ZF48SXCEKRKQL3L5JPPEWX8N","6","6","0","0","1","0","0",,"11977","2017-10-16 16:16:31","23397"
"A31Q7PWLBCU2X0","caus_thomas_fire_v5","3JBT3HLQF837N1JN7PBZ4CUQMOVZP7","6","6","0","0","0","1","0",,"11819","2017-10-16 16:16:33","23398"
"AIJEWX92UW722","caus_thomas_fire_v5","3RANCT1ZVFIOX8O3IXUQS0AM321UBS","8","6","0","0","0","1","1",,"12985","2017-10-16 16:16:34","23399"
"A2AVNKU60T23OQ","caus_thomas_fire_v5","34V1S5K3GS2K74J5OVIRLO1GCGH96W","8","8","0","0","1","0","1",,"20197","2017-10-16 16:16:37","23400"
"A3236DMUX2R2PF","caus_thomas_fire_v5","3180JW2OT4DDUCW05OZZIC1JCQHJ5K","4","4","0","0","0","1","0",,"14423","2017-10-16 16:16:44","23401"
"AJRY9ALX8069Y","caus_thomas_fire_v5","37KGEN7NJ3RD9XHHKGDXDESCCPMPPA","7","7","0","0","0","1","1",,"44958","2017-10-16 16:16:44","23402"
"AGNJKSH5LFKXZ","caus_thomas_fire_v5","3VAR3R6G1P2AI56ZJZY72SSWDAT8OV","4","4","0","0","1","0","1",,"35751","2017-10-16 16:16:45","23403"
"A2ST86YP0N2X5J","caus_thomas_fire_v5","3Q8GYXHFEP3QMYQUVWIDV8OOM685CS","7","7","0","0","0","1","1",,"11935","2017-10-16 16:16:47","23404"
"A3U7FRXVDY12RJ","caus_thomas_fire_v5","33JKGHPFYCV7L98RCL8DSLTM75CMNH","4","4","0","0","1","0","0",,"24346","2017-10-16 16:16:51","23405"
"AJ1VMW9NT7287","caus_thomas_fire_v5","3ZSY5X72NXCG0ALVI847T9N132GROP","6","7","0","0","0","1","1",,"28605","2017-10-16 16:16:58","23406"
"A1710X6OIQP62Q","caus_thomas_fire_v5","3HHRAGRYX86AWAP9OR4L2ON7XGA9OK","6","6","0","0","0","1","1",,"8874","2017-10-16 16:17:01","23407"
"A2JN5RPD5M4UWX","caus_thomas_fire_v5","3G2UL9A02DFGTLVC9YK77SAAHQT76I","6","6","0","0","1","0","0",,"22836","2017-10-16 16:17:02","23408"
"A372JPLA8GRI41","caus_thomas_fire_v5","3X4JMASXCMA8HMCNKQG63TMFNDY0BW","0","0","0","0","0","1","1",,"60168","2017-10-16 16:17:07","23409"
"A26GHTCIXWXJ98","caus_thomas_fire_v5","3HWRJOOET536PY8J3J1GE7YJL2UESX","8","8","0","0","0","1","0",,"20742","2017-10-16 16:17:20","23410"
"A13WGYF2UCOOMJ","caus_thomas_fire_v5","3WQ3B2KGE8H8OBX5G9K6HY5PS521BY","8","8","0","0","0","1","0",,"18248","2017-10-16 16:17:20","23411"
"AEWPAZBYA7XE","caus_thomas_fire_v5","3OVHNO1VE62YY4GX2GK44ID185SZDT","8","8","0","0","1","0","0",,"23539","2017-10-16 16:17:21","23412"
"A3J9JCSAZJIRXI","caus_thomas_fire_v5","3QFUFYSY9YGFTR648TP4YM3DJN5F48","5","5","0","0","0","1","1",,"11776","2017-10-16 16:17:24","23413"
"A3MXI2O3JZ0TZH","caus_thomas_fire_v5","3QIYRE09Y3IAPKM2JZPF8T5J9UG1NN","8","8","0","0","1","0","0",,"19796","2017-10-16 16:17:26","23414"
"A11QYMX961LNI8","caus_thomas_fire_v5","3I3WADAZ9Q5RVNNXL1R4Q8I5BKS5OQ","8","8","0","0","1","0","0",,"26843","2017-10-16 16:17:32","23415"
"A3C7HDRFUAA3IJ","caus_thomas_fire_v5","3DQQ64TANGM3T6EIW2RS58085MRWPE","8","8","0","0","1","0","0",,"27336","2017-10-16 16:17:38","23416"
"A2E3TO92MCQ9XU","caus_thomas_fire_v5","3XCC1ODXDLCJLMYBXLWBIEI1I3WQRU","4","4","0","0","0","1","0",,"13367","2017-10-16 16:17:43","23417"
" A3QDZ935V5U31J
","caus_thomas_fire_v5","3QECW5O0KH278FS5HID3KIOSAS75TA","4","7","0","0","1","0","0",,"18586","2017-10-16 16:17:44","23418"
"A1U6SQML59J1LX","caus_thomas_fire_v5","3AMW0RGHOD3D6C5441059PNHCAOPNH","8","8","0","0","0","1","0",,"29568","2017-10-16 16:17:45","23419"
"A3V2LUYXBLBAPS","caus_thomas_fire_v5","3W92K5RLWUIML7WUMDDIL0CD7DMV5F","8","8","0","0","1","0","0",,"27171","2017-10-16 16:17:46","23420"
"A95RHRMLHT89M","caus_thomas_fire_v5","37XITHEISWAFRLOSS3VGY9TKEOYCRE","6","5","0","0","0","1","0",,"12731","2017-10-16 16:17:47","23421"
"A2DPKKEEW2I6QK","caus_thomas_fire_v5","3UWN2HHPUY6AJ4LWWI4Z4USSZUSNSS","2","5","0","0","0","1","0",,"7620","2017-10-16 16:17:56","23422"
"A76E0BAITFRV7","caus_thomas_fire_v5","3X08E93BHVJXPLH7QOFF1EAEMF966I","8","3","0","0","0","1","0",,"20682","2017-10-16 16:17:59","23423"
"A3DURBBCP9TWJ3","caus_thomas_fire_v5","3WQQ9FUS6AVQZBHQFUTLW8SX6BA8BR","2","6","0","0","1","0","0",,"43946","2017-10-16 16:18:01","23424"
"A29CCD6DOOQCGB","caus_thomas_fire_v5","3EFE17QCRC6I98ZLTK9MZAVWDIMHSG","5","4","0","0","0","1","0",,"25782","2017-10-16 16:18:09","23425"
"A1UHNDB2EQ8TK0","caus_thomas_fire_v5","3X87C8JFV6CVM1YOCAWG8ONX45IQSL","3","2","0","0","1","0","1",,"7339","2017-10-16 16:18:10","23426"
"A3DA9VCFVY24TR","caus_thomas_fire_v5","3L70J4KAZGNXXW8PQO45NPMSZKMAD4","5","6","0","0","1","0","1",,"22285","2017-10-16 16:18:17","23427"
"A1I0ENHGUJZNZG","caus_thomas_fire_v5","337RC3OW0530NWZFE0TP2P8AT3OVL5","7","7","0","0","0","1","0",,"57460","2017-10-16 16:18:19","23428"
"A2ZJAEL03VTZ8","caus_thomas_fire_v5","3IJXV6UZ1XK64OASKDR29CRFRTFIRJ","2","5","0","0","1","0","0",,"7672","2017-10-16 16:18:19","23429"
"A3SKEW89V5S0DI","caus_thomas_fire_v5","3TPZPLC3M0D628CUMIGQ0BPB7TV3PD","7","7","0","0","0","1","1",,"19304","2017-10-16 16:18:19","23430"
"AFD79G0Q2BR4B","caus_thomas_fire_v5","3MB8LZR5BFUM7L53FWFI0GXTD5IKL9","8","8","0","0","1","0","0",,"16848","2017-10-16 16:18:25","23431"
"A2ZFS2CUIALZ1O","caus_thomas_fire_v5","3OSWBBLG1EY9T9GI1YWJ7XXQ05VDXB","8","8","0","0","0","1","1",,"26321","2017-10-16 16:18:26","23432"
"A1XTZBD6M60PYD","caus_thomas_fire_v5","3GNCZX450IO6MTBFVXV0NJ3HD3PPAX","4","4","0","0","1","0","1",,"36644","2017-10-16 16:18:31","23433"
"ACRQ23N3DL4NI","caus_thomas_fire_v5","3LYA37P8IQOAUCJROJQOMD1O1B3BKC","7","7","0","0","0","1","1",,"23872","2017-10-16 16:18:32","23434"
"A370N8MILNFC3R","caus_thomas_fire_v5","3TPWUS5F892KZH5ERX5ML81163DCWH","8","4","0","0","0","1","1",,"23927","2017-10-16 16:18:39","23435"
"A3T3B80RHVYK4L","caus_thomas_fire_v5","3NC5L260MONJXKGMRD4DCK9I0E6FOJ","4","4","0","0","1","0","0",,"26401","2017-10-16 16:18:42","23436"
"A1W36Q5THCHYUZ","caus_thomas_fire_v5","3X1FV8S5JXSK14LE39W9PX32XM3GVL","8","8","0","0","1","0","0",,"36041","2017-10-16 16:18:45","23437"
"A3FAQHVPI8OUP0","caus_thomas_fire_v5","323Q6SJS8IH953UZN09NSBCHOSSFHV","8","8","0","0","0","1","0",,"23064","2017-10-16 16:18:47","23438"
"A2CO0L7AHULZ51","caus_thomas_fire_v5","3TR2532VIPV9DGWEA794AIFJ8LS6JN","4","4","0","0","1","0","1",,"22237","2017-10-16 16:18:54","23439"
"A1N8IT6PFVE7SU","caus_thomas_fire_v5","3IX2EGZR7BK2ZZUY2VC2LD6F487RJ7","8","8","0","0","1","0","1",,"12449","2017-10-16 16:18:56","23440"
"A2WTNZHRALOHX8","caus_thomas_fire_v5","38YMOXR4MU0VJ0WDH6SJZ89RAHZW66","7","7","0","0","1","0","0",,"23170","2017-10-16 16:18:59","23441"
"AIDWWRWBP7304","caus_thomas_fire_v5","3JJVG1YBEBY7CTYOHWMIKOI64L95BM","8","8","0","0","1","0","0",,"34034","2017-10-16 16:19:00","23442"
"A1FQE3NEOHSKOX","caus_thomas_fire_v5","3IO1LGZLK9YKTZ0VJ3CDLS65SA0685","1","2","0","0","1","0","1",,"7817","2017-10-16 16:19:03","23443"
"AZ2P6DGG5M6SH","caus_thomas_fire_v5","3DH6GAKTYYQ1WFBOYC7IH3N2QTWYZY","8","8","0","0","1","0","1",,"30815","2017-10-16 16:19:04","23444"
"A2XVL0RNQMWI17","caus_thomas_fire_v5","30BXRYBRP4YBGPGUDPJNWZYHJVIWHA","8","8","0","0","1","0","0",,"20258","2017-10-16 16:19:08","23445"
"A1XLKP50VFNDGN","caus_thomas_fire_v5","3YGXWBAF70I8QFMUHRZ3QGIAMAEC4V","4","4","0","0","1","0","1",,"28805","2017-10-16 16:19:10","23446"
"A2MW5S0XS0D5MN","caus_thomas_fire_v5","37KGEN7NJ3RD9XHHKGDXDESCCPPPPD","7","7","0","0","1","0","1",,"35337","2017-10-16 16:19:12","23447"
"ACPPFTEDFO6Q7","caus_thomas_fire_v5","3E13VNJ1NNWIBJBBMJCN3L92NVOI1Q","8","8","0","0","0","1","1",,"29290","2017-10-16 16:19:18","23448"
"A154B3Q5DTHN7","caus_thomas_fire_v5","3ZAZR5XV01JOTCAJ2KPTKCVJN5HCZ7","4","4","0","0","1","0","0",,"29018","2017-10-16 16:19:23","23449"
"A3UXCS65PQ6HRB","caus_thomas_fire_v5","3EF8EXOTT1WE6UVH41XNFMO20ADJ13","6","8","0","0","1","0","1",,"33789","2017-10-16 16:19:23","23450"
"ATOP7IB7PX8WX  

 Total Earnings  (What's this?)   
ATOP7IB7PX8WX  

 Total Earnings  (What's this?)","caus_thomas_fire_v5","34FNN24DCMA3P1RZRO02SZG7PURY5U","6","7","0","0","0","1","0",,"10653","2017-10-16 16:19:29","23451"
"A2T9GR0UCUVDXG","caus_thomas_fire_v5","37W3JXSD669X2K6JNPNBIZTK9RSYW8","0","8","0","0","1","0","0",,"13332","2017-10-16 16:19:30","23452"
"A34AFYT6XP6GOV","caus_thomas_fire_v5","38JBBYETQOBNND68DI5YG4ID7MR4EG","8","8","0","0","0","1","0",,"36157","2017-10-16 16:19:35","23453"
"A2JEMCGIO2SROI","caus_thomas_fire_v5","3QFUFYSY9YGFTR648TP4YM3DJN44FW","8","8","0","0","1","0","0",,"3198","2017-10-16 16:19:39","23454"
"A27XLNJ5KLI7JW","caus_thomas_fire_v5","35K3O9HUABEXLT3XXZ1H78F4WC1EFF","6","6","0","0","0","1","1",,"16383","2017-10-16 16:19:39","23455"
"A118Y4ND7AFS2J","caus_thomas_fire_v5","3WZ36BJEV3H9XV9EIS4GN4OKKOUTB0","8","8","0","0","1","0","0",,"16214","2017-10-16 16:19:40","23456"
"A38TZK07ON180S","caus_thomas_fire_v5","3YDTZAI2WXHO3CCW1UAJ9KZJIDN14U","8","8","0","0","1","0","1",,"122727","2017-10-16 16:19:45","23457"
"A2BNOEYZ3VRW2R","caus_thomas_fire_v5","3LJ7UR74RHERHJJL6H8H6RCMLESN4O","0","8","0","0","1","0","0",,"34244","2017-10-16 16:19:46","23458"
"A1YQYMEN76HNIE","caus_thomas_fire_v5","36ZN444YTRZ37BICSLAYFHMAG6XIOC","8","8","0","0","0","1","0",,"17652","2017-10-16 16:19:47","23459"
"A1G17IJC53N6K3","caus_thomas_fire_v5","3AZHRG4CU4L3ER8A5X10LAO3ZLJ306","8","8","0","0","1","0","1",,"32122","2017-10-16 16:19:58","23460"
"A3G3RA7SPVH6NP","caus_thomas_fire_v5","3WEV0KO0OMT1XSUJ7OQW8PGYLQSDS2","8","8","0","0","0","1","1",,"20565","2017-10-16 16:20:04","23461"
"AQUNG20W5Z9HN","caus_thomas_fire_v5","32VNZTT0A75CWHBDZOPYFBHWMBI4RU","6","6","0","0","1","0","0",,"19263","2017-10-16 16:20:10","23462"
"A34IUH1SYLXRN8","caus_thomas_fire_v5","3R5F3LQFV2LP217MSPYKFCP0CJ0OZG","4","4","0","0","0","1","1",,"19014","2017-10-16 16:20:21","23463"
"A1KDUWG2ZTOQWE","caus_thomas_fire_v5","30BUDKLTXDW5JWA8RNO8LWOR7IM5EM","4","4","0","0","1","0","0",,"39078","2017-10-16 16:20:24","23464"
"A3IJTM1XM7FE15","caus_thomas_fire_v5","3R6P78PK7KC5OCHPYEWUOFFH01OGT6","4","4","0","0","0","1","0",,"24392","2017-10-16 16:20:29","23465"
"A1OZ5BB2L44KG","caus_thomas_fire_v5","31IBVUNM9S0EN4PJSPQR7C3QW74FVM","8","8","0","0","0","1","0",,"29352","2017-10-16 16:20:38","23466"
"A3IFMNK4AQPHUN","caus_thomas_fire_v5","3L70J4KAZGNXXW8PQO45NPMSZKMDA7","8","8","0","0","0","1","0",,"21032","2017-10-16 16:20:39","23467"
"A3PQYTQ44C8UQ4","caus_thomas_fire_v5","3N4BPTXIO8TPQBSXOA7JR3TCQWBKU3","8","3","0","0","0","1","1",,"54144","2017-10-16 16:20:44","23468"
"A1XZSX54ZLFDBU","caus_thomas_fire_v5","3NXNZ5RS1AY3B4XA75NJR21C7R279U","8","0","0","0","0","1","1",,"22610","2017-10-16 16:20:50","23469"
"A1HSH7YOK6XIO8","caus_thomas_fire_v5","3EO896NRAWWFFE7Q6KHXLS7XST2JTA","4","4","0","0","1","0","1",,"21973","2017-10-16 16:20:53","23470"
"A2NISO63F81FOK","caus_thomas_fire_v5","3ZY8KE4ISJ4BETFS651LJB7439CVQV","4","8","0","0","1","0","1",,"33227","2017-10-16 16:20:54","23471"
"A3D46S3V9SYXTT","caus_thomas_fire_v5","32M8BPYGATNFFY1E42XQA8D8PK7GIO","5","5","0","0","1","0","0",,"9877","2017-10-16 16:20:56","23472"
"A2KZFDKNKS06KY","caus_thomas_fire_v5","3OUYGIZWR7ZALGDX3VY7YDR44HC0PG","8","8","0","0","0","1","1",,"25112","2017-10-16 16:21:01","23473"
"APDDA1Y59RHV9","caus_thomas_fire_v5","3HOSI13XHZPVV3B1AYV7DQUYKNJDD9","4","4","0","0","1","0","0",,"46666","2017-10-16 16:21:02","23474"
"A2ASAECAHB8WSZ
","caus_thomas_fire_v5","3AAPLD8UCCIJO8C0IKEC9FRIF10THH","3","3","0","0","1","0","0",,"17939","2017-10-16 16:21:13","23475"
"A399GYOD60WD7M","caus_thomas_fire_v5","34S9DKFK73Q7FQX5VOWOMGGTGFSNYA","4","4","0","0","0","1","1",,"22539","2017-10-16 16:21:16","23476"
"A3SGCJ5H1N075H","caus_thomas_fire_v5","3HMVI3QICJT41JQGQ1YQP93QDEMY1C","8","8","0","0","0","1","1",,"29850","2017-10-16 16:21:17","23477"
"A1P7SR0R2B60C7","caus_thomas_fire_v5","3IOEN3P9S7K2IZGAKI3Y6IJXE4U16G","6","6","0","0","0","1","0",,"34005","2017-10-16 16:21:26","23478"
"A32QJF67JMJFKX","caus_thomas_fire_v5","39ASUFLU6X8ELFUIXT73DFFB0HTXEL","8","8","0","0","0","1","1",,"14049","2017-10-16 16:21:29","23479"
"A3B7TNVOISSZ2O","caus_thomas_fire_v5","3IFS6Q0HJIKI53A5Z2R7ZMWBDV2SIL","8","8","0","0","0","1","0",,"16223","2017-10-16 16:21:29","23480"
"A2YAZATN6OGRDR","caus_thomas_fire_v5","33LKR6A5KEL8KXRMGVBRHSBBYC51TR","8","8","0","0","1","0","0",,"26985","2017-10-16 16:21:32","23481"
"A1GRLZL4F72RBJ","caus_thomas_fire_v5","3IAEQB9FMELU49BSRT0X5EJJR3OWD0","4","4","0","0","1","0","1",,"269117","2017-10-16 16:21:33","23482"
"A37LY5UTJV2KYZ","caus_thomas_fire_v5","3ZAZR5XV01JOTCAJ2KPTKCVJN5ICZ8","8","8","0","0","1","0","0",,"23440","2017-10-16 16:21:38","23483"
"A23NJOKU9E2EPA","caus_thomas_fire_v5","35GMH2SV3EIRR6GQW2K7U2OIODSOEB","4","4","0","0","1","0","1",,"22331","2017-10-16 16:21:40","23484"
"A2UP31CCCRMM6W","caus_thomas_fire_v5","3VBEN272MK049C4A9ER4EAJVYIASGT","8","8","0","0","0","1","1",,"35748","2017-10-16 16:21:42","23485"
"A3J0TW75N80W19","caus_thomas_fire_v5","30JNVC0OR9L6WSK81GKH4AGVVU2QH1","4","8","0","0","0","1","0",,"31235","2017-10-16 16:21:57","23486"
"A1JRNNCMEW631Z","caus_thomas_fire_v5","3U5JL4WY5KAWTDXP8NVQ4T3KNS24XP","7","7","0","0","1","0","0",,"24048","2017-10-16 16:21:59","23487"
"A3TTG9ALOZM8RC","caus_thomas_fire_v5","3DR23U6WE5F74YLYSJ66OCU5NL7ETL","8","8","0","0","0","1","1",,"20395","2017-10-16 16:22:02","23488"
"A1SM0IKQ4OTSCI","caus_thomas_fire_v5","3P529IW9KYMBRZDPELOLK35O591FL2","8","8","0","0","1","0","1",,"44137","2017-10-16 16:22:08","23489"
"A1CFIFCBCJ4ODO","caus_thomas_fire_v5","3WI0P0II61TPWDU6SZQRIFB2ZOBRDU","8","8","0","0","1","0","1",,"24024","2017-10-16 16:22:13","23490"
"AP43EYS9D1Z9E","caus_thomas_fire_v5","31UV0MXWNQDHZ1CUN6EZ6BMJZBUI59","8","8","0","0","0","1","0",,"29962","2017-10-16 16:22:15","23491"
"ADT6AD3LK64AH","caus_thomas_fire_v5","3A7Y0R2P2OPMWVGABUIUAVS35PPXJ6","8","8","0","0","1","0","0",,"29400","2017-10-16 16:22:26","23492"
"A3VIGT44T83M5S","caus_thomas_fire_v5","31QTRG6Q2TE7IB9IB39GQ5LOGUTYPH","4","5","0","0","1","0","0",,"26242","2017-10-16 16:22:37","23493"
"AFWKRID53R1XA","caus_thomas_fire_v5","3Y5140Z9DXHLSBUD7LND4HR0QBWPI3","2","4","0","0","1","0","0",,"16923","2017-10-16 16:22:42","23494"
"A168QBUOKNFWWK","caus_thomas_fire_v5","3JZQSN0I3QBV57ZO3UR57B0G9SGGFY","7","7","0","0","0","1","0",,"36548","2017-10-16 16:22:46","23495"
"A24Q1UMV25TBV2","caus_thomas_fire_v5","3DYGAII7PL9Y99IWKTSMDJIMHL8QP2","4","4","0","0","0","1","1",,"8305","2017-10-16 16:22:46","23496"
"AIEKCWYZTS41V","caus_thomas_fire_v5","34Q075JO1XE74OUVITNHXH9611501B","6","6","0","0","0","1","1",,"19919","2017-10-16 16:22:55","23497"
"A3K8KIL1QIPTJL","caus_thomas_fire_v5","3Q8GYXHFEP3QMYQUVWIDV8OOM69C50","0","0","0","0","1","0","1",,"18080","2017-10-16 16:23:07","23498"
"A37JAONFRRB36Z","caus_thomas_fire_v5","3WJEQKOXA83351SDAVKAMNLJANLA1G","8","8","0","0","0","1","0",,"18328","2017-10-16 16:23:07","23499"
"A3DNH2kLITQLXE","caus_thomas_fire_v5","3I02618YA07Q12PD12CRNKFBK6IUPF","8","7","0","0","1","0","0",,"45259","2017-10-16 16:23:08","23500"
"A1GFN7WDJ0GX5V","caus_thomas_fire_v5","3WLEIWSYHOIP49INZ5UG8SISFOP2H0","7","7","0","0","1","0","1",,"12835","2017-10-16 16:23:09","23501"
"A2BGRGVU9HG0C6","caus_thomas_fire_v5","3FE2ERCCZX9VOX5G5G0IOENM2KTOPV","8","8","0","0","0","1","0",,"36524","2017-10-16 16:23:10","23502"
"A1E6BY8LYS05ZW","caus_thomas_fire_v5","3PZDLQMM0TMYN177DDGFX1LC2WKC21","8","8","0","0","0","1","0",,"28744","2017-10-16 16:23:13","23503"
"A2BGAF722AB5VM","caus_thomas_fire_v5","3TGOYF991XN3T7X9IOBLXQ2ASNAUUB","8","8","0","0","1","0","0",,"23064","2017-10-16 16:23:14","23504"
"A3RFKIT5OT3BJ7","caus_thomas_fire_v5","3SKEMFQBZ36RSELKL76EVBBNT5L8KD","5","6","0","0","1","0","0",,"27845","2017-10-16 16:23:15","23505"
"ADVCIFLB5A9B","caus_thomas_fire_v5","3DYGAII7PL9Y99IWKTSMDJIMHLDPQ6","8","8","0","0","0","1","0",,"18275","2017-10-16 16:23:28","23506"
"AMDX0UNZS4A1G","caus_thomas_fire_v5","3I2PTA7R3TVXYILG71NEH2WNNB3KQW","8","8","0","0","1","0","0",,"21826","2017-10-16 16:23:36","23507"
"A2CO3PHGWP142Q","caus_thomas_fire_v5","3WAKVUDHUWH1VWLD5GIANYOQKCC7UL","4","4","0","0","1","0","0",,"44880","2017-10-16 16:23:41","23508"
"A2RR04JS69Z5LE","caus_thomas_fire_v5","3V0Z7YWSIY1UMAD74UBKNT91N3ZV2I","6","6","0","0","1","0","1",,"7639","2017-10-16 16:23:50","23509"
"A2M5M653UAC0SM","caus_thomas_fire_v5","3PEIJLRY6TU82FG9IT19ZLMB7L3XW6","5","5","0","0","1","0","0",,"17985","2017-10-16 16:23:53","23510"
"A1M9H7WED4RUD5","caus_thomas_fire_v5","3IUZPWIU1O82IFH2JAMK9RE9BCJKWZ","8","8","0","0","0","1","0",,"15039","2017-10-16 16:24:01","23511"
"A3DKKDV1WEZLYF","caus_thomas_fire_v5","3A4NIXBJ760HX95608SYFTPX2AFLMH","8","2","0","0","1","0","0",,"19723","2017-10-16 16:24:03","23512"
"A2RDGEY7CJBI4K","caus_thomas_fire_v5","3LO69W1SU3EH5Z9KP5U32O506O3LG9","5","4","0","0","0","1","1",,"56072","2017-10-16 16:24:11","23513"
"A2WCYILM19VQEW","caus_thomas_fire_v5","31LVTDXBL7B8UPIY5GOF1SJ78XELR5","2","2","0","0","0","1","1",,"44301","2017-10-16 16:24:14","23514"
"A100UJALBX4U9V
","caus_thomas_fire_v5","3KAKFY4PGU3ELMPQ9NQ6REOZLF2I3I","6","5","0","0","0","1","1",,"28040","2017-10-16 16:24:18","23515"
"A2CUBA783W1689","caus_thomas_fire_v5","3JJVG1YBEBY7CTYOHWMIKOI64LB5BO","7","7","0","0","1","0","0",,"25404","2017-10-16 16:24:21","23516"
"A36Y0EW062GZM4","caus_thomas_fire_v5","3C8HJ7UOP7V12YMAF9J7N80VHJNZME","8","8","0","0","0","1","0",,"11171","2017-10-16 16:24:22","23517"
"A1EDUAP3LASBJO","caus_thomas_fire_v5","39DD6S19JPC3QAUXYBVOA0VM8HVZEO","6","6","0","0","1","0","1",,"39594","2017-10-16 16:24:24","23518"
"A2Z5XEQNW13NUJ","caus_thomas_fire_v5","38JBBYETQOBNND68DI5YG4ID7MU4EJ","-1","5","0","0","0","1","1",,"14727","2017-10-16 16:24:36","23519"
"A24Z9RP5YZZ2TY","caus_thomas_fire_v5","3TVRFO09GKGSRL4AEFU7QA5V9EVLXX","8","8","0","0","1","0","1",,"28320","2017-10-16 16:24:39","23520"
"A1KLWHCGSS8WXD","caus_thomas_fire_v5","37UQDCYH6XW18BADA6SFJKQ9YJHV7U","4","8","0","0","1","0","1",,"34560","2017-10-16 16:24:45","23521"
"A15XX0WDRG29E7","caus_thomas_fire_v5","3M1CVSFP606RM5CUVAAPNOTRIZ9QAN","8","7","0","0","1","0","1",,"36450","2017-10-16 16:24:49","23522"
"AHCZ9TPJ5N2LQ","caus_thomas_fire_v5","3LO69W1SU3EH5Z9KP5U32O506O0GL1","4","4","0","0","0","1","0",,"26690","2017-10-16 16:24:58","23523"
"A37X1GHLB2HCX7","caus_thomas_fire_v5","31QTRG6Q2TE7IB9IB39GQ5LOGUQPY5","0","8","0","0","1","0","1",,"15401","2017-10-16 16:25:00","23524"
"A2MLMOQW8BAAUT
A2MLMOQW8BAAUT
A2MLMOQW8BAAUT
A2MLMOQW8BAAUT
A2MLMOQW8BAAUT
 A2MLMOQW8BAAUT
 A2MLMOQW","caus_thomas_fire_v5","36DSNE9QZ5ZZ2M2IA3VYRI1ATLMJOP","6","6","0","0","1","0","1",,"80249","2017-10-16 16:25:03","23525"
"A265Y95XHCU9AH","caus_thomas_fire_v5","3MRNMEIQW57ETFZTNFTVW323TWLDLP","8","8","0","0","0","1","1",,"17846","2017-10-16 16:25:05","23526"
"AV7A20KYBTQHL","caus_thomas_fire_v5","32ZKVD547FO4YEBK3DYP5RKMQPKB34","8","8","0","0","1","0","1",,"26950","2017-10-16 16:25:05","23527"
"A1W16H497VK9Z2","caus_thomas_fire_v5","31QTRG6Q2TE7IB9IB39GQ5LOGUSYPG","4","4","0","0","1","0","0",,"20869","2017-10-16 16:25:05","23528"
"A2OK71FR9Y7RER","caus_thomas_fire_v5","3P4RDNWND57P60RFC8IT7L5OHCQJIX","4","4","0","0","1","0","1",,"21494","2017-10-16 16:25:07","23529"
"A219VCQZADQ45W","caus_thomas_fire_v5","3HMIGG0U4L7MCJA1PM754JQYRKV8Y9","6","6","0","0","0","1","0",,"18778","2017-10-16 16:25:13","23530"
"A3T021IZ1409ZH","caus_thomas_fire_v5","3M23Y66PO282CJF4X1II2J664476S5","7","4","0","0","0","1","0",,"24352","2017-10-16 16:25:19","23531"
"A1S7WGRS6BVBGW","caus_thomas_fire_v5","3WLEIWSYHOIP49INZ5UG8SISFOQ2H1","8","8","0","0","0","1","0",,"21918","2017-10-16 16:25:24","23532"
"A3K8J4N2M38P0S","caus_thomas_fire_v5","3C5W7UE9CFRCX3MVERVMQNKK9JQMX5","5","5","0","0","0","1","1",,"15726","2017-10-16 16:25:32","23533"
"A3USP1ZP069KCK","caus_thomas_fire_v5","37ZHEEHM6WNHW28UQWM90PYQ7ZU37B","7","7","0","0","1","0","0",,"21363","2017-10-16 16:25:42","23534"
"A1I4YFIL263DP8","caus_thomas_fire_v5","3AZHRG4CU4L3ER8A5X10LAO3ZLO038","6","5","0","0","0","1","1",,"21605","2017-10-16 16:25:44","23535"
"A3CLB6VUB79NXD","caus_thomas_fire_v5","3KWTYT08704JP2K089BCYREBGFQ5LC","2","2","0","0","1","0","1",,"18470","2017-10-16 16:25:45","23536"
"A1SU8C0D1IJYTN","caus_thomas_fire_v5","33PPO7FECVGC3ERN2CWI4NABCSUDIE","8","8","0","0","0","1","1",,"18888","2017-10-16 16:25:48","23537"
"A1DXSFFL5HZ1NX","caus_thomas_fire_v5","3NL0RFNU0FOQ9DYI94G1EZVIRJQK4J","7","7","0","0","1","0","0",,"27536","2017-10-16 16:25:50","23538"
"AK3H5QRAROFGP","caus_thomas_fire_v5","3634BBTX0OV91Y5JTIR8SNDWO54IFO","4","5","0","0","1","0","1",,"13280","2017-10-16 16:25:54","23539"
"A3R1L6ID6NE0LU
	Total Earnings  (What's this?)","caus_thomas_fire_v5","3FFJ6VRIL1PI4UQTQ08NPGQSI3LI0Q","6","6","0","0","1","0","0",,"17629","2017-10-16 16:25:59","23540"
"A2HG1N3BVQO6I","caus_thomas_fire_v5","3OLQQLKKNSQDQVPTGPS2M67WPJKEJK","8","8","0","0","1","0","0",,"28205","2017-10-16 16:26:00","23541"
"AICU65R9X9G60
","caus_thomas_fire_v5","3CP1TO84PT2DOGYSY3T7JVF2AFZ52N","4","8","0","0","1","0","1",,"24652","2017-10-16 16:26:00","23542"
"A3L4RJUHA0CJEA","caus_thomas_fire_v5","3OLF68YTN92UVGMLHUZVBPPDBX5AFI","8","8","0","0","0","1","0",,"25555","2017-10-16 16:26:01","23543"
"A1SMJPKHJLZRC9","caus_thomas_fire_v5","3OF2M9AATGP6CAM7UX6R8V8RSEPZK6","4","4","0","0","0","1","0",,"50031","2017-10-16 16:26:07","23544"
"A1DHYSXOHE5VQL","caus_thomas_fire_v5","3I2PTA7R3TVXYILG71NEH2WNNB6QK5","8","8","0","0","1","0","0",,"22685","2017-10-16 16:26:11","23545"
"A16L21AR8X012","caus_thomas_fire_v5","3U4J9857OECMZXC75P1FI8W2VR77B6","4","4","0","0","1","0","0",,"24167","2017-10-16 16:26:12","23546"
"A2COAUZ1TISD2Q","caus_thomas_fire_v5","3NL0RFNU0FOQ9DYI94G1EZVIRJQ4K3","4","5","0","0","1","0","1",,"14482","2017-10-16 16:26:15","23547"
"A5L6EWPGSPQED","caus_thomas_fire_v5","354P56DE9K4LGJT9GBNA8X62ZFT7S7","7","7","0","0","0","1","1",,"15976","2017-10-16 16:26:19","23548"
"A35QYDS8MRV1EX","caus_thomas_fire_v5","3F6KKYWMNB24HF2EZS9A9V6SYRJDNP","5","6","0","0","1","0","1",,"6762","2017-10-16 16:26:24","23549"
"A255QE6CVHJ15U","caus_thomas_fire_v5","36WLNQG78ZB78CRHSXFLOIOJHECEB0","8","8","0","0","0","1","1",,"12452","2017-10-16 16:26:55","23550"
"A1KYRJAP5MT5YS","caus_thomas_fire_v5","3NPI0JQDAO6B1PAO1XMHIOT91SDTPP","8","2","0","0","0","1","0",,"21754","2017-10-16 16:26:55","23551"
"A2TDLLB8JTZGBN","caus_thomas_fire_v5","3AWETUDC92TF6FWJUULFVFTE0A4ZIZ","3","3","0","0","1","0","0",,"11261","2017-10-16 16:26:56","23552"
"AIM6UIPPVF05M","caus_thomas_fire_v5","3R6BYFZZP7D6RTUES4R9VX0BCIEFXR","4","5","0","0","1","0","0",,"22829","2017-10-16 16:26:59","23553"
"A5JMH4GQPZB4N","caus_thomas_fire_v5","3YOH7BII098P3QHXT0HONPVV43LVK4","8","8","0","0","1","0","0",,"16905","2017-10-16 16:27:02","23554"
"A134MJZL7H493A","caus_thomas_fire_v5","3AMW0RGHOD3D6C5441059PNHCAPNPG","8","8","0","0","0","1","0",,"14114","2017-10-16 16:27:04","23555"
"A25P3J7HNY4JC6","caus_thomas_fire_v5","32SCWG5HIH55ZRZC5KEO7E1VHK2P6A","8","8","0","0","0","1","1",,"18914","2017-10-16 16:27:07","23556"
"A49HPQ9P5AHU4","caus_thomas_fire_v5","3YW4XOSQKQMNKA6BG011MOXDHQF1UL","8","8","0","0","1","0","1",,"12945","2017-10-16 16:27:07","23557"
"A2RBNMRC6942T0","caus_thomas_fire_v5","3VHHR074H3IYC6YJW2Q9WBS77LIL74","8","8","0","0","1","0","1",,"16725","2017-10-16 16:27:09","23558"
"A1KXYURHCYHKOL","caus_thomas_fire_v5","339ANSOTR53KHKXXUTI58051W1RKIY","6","6","0","0","0","1","1",,"34584","2017-10-16 16:27:09","23559"
"A3VGBW0I7HK3EC","caus_thomas_fire_v5","3B837J3LDOXVY2DOPPLGDEX20RNSRR","8","8","0","0","1","0","1",,"25467","2017-10-16 16:27:11","23560"
"A12HZGOZQD5YK7","caus_thomas_fire_v5","3IHR8NYAM72RK4VYMWL9AGHHLTVP4O","8","8","0","0","1","0","1",,"29271","2017-10-16 16:27:17","23561"
"A2GC0LGLXP6O92","caus_thomas_fire_v5","3S0TNUHWKTJJE8FATQKRRYGX9WPD86","8","8","0","0","1","0","0",,"27928","2017-10-16 16:27:20","23562"
"A19IGUTAIUBXSK","caus_thomas_fire_v5","36ZN444YTRZ37BICSLAYFHMAG61OIM","5","5","0","0","1","0","0",,"24844","2017-10-16 16:27:23","23563"
"A1MZYU5X6J3YW6","caus_thomas_fire_v5","320DUZ38G7NBA9LKMKIQM9S82ZZJG6","8","8","0","0","0","1","0",,"33818","2017-10-16 16:27:25","23564"
"AGCWXX1MYHP75","caus_thomas_fire_v5","3FTOP5WARFPEZ5AZ8ITN1H5SVI60JG","6","6","0","0","0","1","1",,"22694","2017-10-16 16:27:25","23565"
"A1GHMM8WNMYZSN","caus_thomas_fire_v5","3ZQIG0FLQEHGYQBEIE0RB0PQRAQWVX","8","8","0","0","0","1","1",,"22069","2017-10-16 16:27:33","23566"
"A1AF25FCVKC87X","caus_thomas_fire_v5","3STRJBFXOWSAQYD8O5H9M77A7I7TKO","8","8","0","0","1","0","0",,"16506","2017-10-16 16:27:35","23567"
"ASPAA95N9CFQ2","caus_thomas_fire_v5","3S06PH7KSR5138VPU5BCCOTPVQK1DB","7","7","0","0","0","1","1",,"21225","2017-10-16 16:27:36","23568"
"A2ZA6GLQTIF345","caus_thomas_fire_v5","31Q0U3WYDPGLMZUF3S8QCWJT9FG17H","8","8","0","0","1","0","1",,"32581","2017-10-16 16:27:41","23569"
"A2MACDVP9MWKHA","caus_thomas_fire_v5","3LEIZ60CDJ0MVE3GQ0F2IMUBHKHZ9G","7","7","0","0","1","0","1",,"23264","2017-10-16 16:27:46","23570"
"A2NL38BFEE3BVY
","caus_thomas_fire_v5","36PW28KO4ZX2P2MPMJFPT74DZWLEAZ","6","6","0","0","1","0","1",,"16664","2017-10-16 16:27:49","23571"
"A3GPKYAXYEHEI2","caus_thomas_fire_v5","3A1COHJ8NJW0QOKCFM3HIJVV1OI8HA","7","7","0","0","1","0","1",,"35726","2017-10-16 16:27:50","23572"
"A1L3G1F48LOD5F","caus_thomas_fire_v5","3GA6AFUKOOPEPRE6358LR2NKL2RH3S","4","4","0","0","0","1","1",,"28162","2017-10-16 16:27:56","23573"
"A1LUM8ICNKFUX0","caus_thomas_fire_v5","34MAJL3QP4OKDFQBOYO2XDEGGX543T","8","8","0","0","0","1","1",,"19648","2017-10-16 16:28:00","23574"
"A2NCNAIYI022X9","caus_thomas_fire_v5","3Y4W8Q93LZLHPKBN1JV1JC05KUPDVA","8","8","0","0","0","1","0",,"103080","2017-10-16 16:28:02","23575"
"A15HF9M3EGMCWL","caus_thomas_fire_v5","3R6BYFZZP7D6RTUES4R9VX0BCIEXF9","8","8","0","0","0","1","1",,"20982","2017-10-16 16:28:04","23576"
"A3LVUYUKG9N5HE","caus_thomas_fire_v5","3Y4W8Q93LZLHPKBN1JV1JC05KUQDVB","4","4","0","0","0","1","1",,"28691","2017-10-16 16:28:07","23577"
"A3KR3JXXEHZDGV
","caus_thomas_fire_v5","3ATPCQ38J8B0V73GMKRJ0AWTH8VAYF","8","8","0","0","1","0","1",,"46137","2017-10-16 16:28:12","23578"
"A2W2F1PFQPUZW9","caus_thomas_fire_v5","3P4RDNWND57P60RFC8IT7L5OHCRJIY","8","8","0","0","0","1","0",,"23609","2017-10-16 16:28:17","23579"
"AFRYR0I0RA971","caus_thomas_fire_v5","32SVAV9L3FAZF46SXZYTAG0G871A3A","5","6","0","0","0","1","0",,"20681","2017-10-16 16:28:18","23580"
"A38W31UJ4HXYYJ","caus_thomas_fire_v5","3TYCR1GOTCKHWG4PFXISNVL6HEYLZZ","8","8","0","0","0","1","1",,"21407","2017-10-16 16:28:22","23581"
"A1HN4550TIXQBZ","caus_thomas_fire_v5","3RYC5T2D73UYLAXWX8HMI9SRD7APR2","8","8","0","0","1","0","0",,"12371","2017-10-16 16:28:35","23582"
"A3D3NEQ158WUB0","caus_thomas_fire_v5","3X1FV8S5JXSK14LE39W9PX32XM0VGX","8","8","0","0","1","0","0",,"17779","2017-10-16 16:28:39","23583"
"A2U5K5WW79T4Q2","caus_thomas_fire_v5","33CKWXB73JL7BDFDECRHBMSG6TH11L","0","0","0","0","1","0","0",,"24045","2017-10-16 16:28:40","23584"
"A192RWJGJ05PZK","caus_thomas_fire_v5","3A0EX8ZRN8P5EH88SYRFVLGZZQFYBX","6","6","0","0","1","0","0",,"19148","2017-10-16 16:28:42","23585"
"A1YX741QQSMKPS","caus_thomas_fire_v5","3RRCEFRB7MDPGAUO3R38FWCS4PC4BE","8","8","0","0","1","0","0",,"28426","2017-10-16 16:28:54","23586"
"AXDLEGI6OD6V","caus_thomas_fire_v5","3R0T90IZ1SDO2VFECS14Z5FDCFRGCQ","4","4","0","0","0","1","0",,"16275","2017-10-16 16:28:54","23587"
"A2NHIKI290Q7ML","caus_thomas_fire_v5","3QEMNNSB2X0FEUARJLSLDYK2YCKD7K","3","5","0","0","1","0","0",,"28611","2017-10-16 16:28:58","23588"
"A1OHPYH0S1HVKU","caus_thomas_fire_v5","3MTMREQS4VJW628G7J9VFDBD60WAWH","4","4","0","0","0","1","1",,"26091","2017-10-16 16:28:58","23589"
"A1NAGLVAIALY55","caus_thomas_fire_v5","3AMYWKA6YBNNERNBQK19IEW57G86OE","8","8","0","0","0","1","0",,"15046","2017-10-16 16:28:59","23590"
"A21EJWA14YMY79","caus_thomas_fire_v5","3VSOLARPKBALALWN5TKTELPW2PI39N","4","4","0","0","1","0","0",,"166463","2017-10-16 16:29:03","23591"
"A2S4YDJ9UGAXFQ","caus_thomas_fire_v5","3DR23U6WE5F74YLYSJ66OCU5NLCTE5","8","8","0","0","1","0","0",,"14968","2017-10-16 16:29:07","23592"
"A1A9SUYOFNNR3Y","caus_thomas_fire_v5","3PJ71Z61R43P0II8IP6AQSAZ46619X","6","4","0","0","0","1","0",,"18754","2017-10-16 16:29:09","23593"
"A1H11P4QSM08Y1","caus_thomas_fire_v5","3GS6S824SQY3QL25GNE01JVD57VWNN","4","4","0","0","1","0","1",,"9786","2017-10-16 16:29:18","23594"
"AVQCDHE5UXLF9","caus_thomas_fire_v5","3RU7GD8VPOUAMPX9CXHR8JXNZ90SP0","8","8","0","0","1","0","1",,"25839","2017-10-16 16:29:24","23595"
"A2M4QB5T835AW1","caus_thomas_fire_v5","3TOK3KHVJTJ6IR1G9U61OSW12QRO7S","8","8","0","0","0","1","0",,"18474","2017-10-16 16:29:26","23596"
"A2Z4VFK7LN3XUI","caus_thomas_fire_v5","373ERPL3YO9WD2Q3EPQ6NJTO2A2RTG","8","8","0","0","1","0","1",,"17188","2017-10-16 16:29:27","23597"
"AL0SFLBAVTHU3","caus_thomas_fire_v5","3SKEMFQBZ36RSELKL76EVBBNT5M8KE","3","8","0","0","1","0","1",,"28090","2017-10-16 16:29:29","23598"
"A1QWOS976GV4FW","caus_thomas_fire_v5","3RXPCZQMQPC4FS5GWVCKI9WM8I0G10","8","8","0","0","1","0","1",,"24010","2017-10-16 16:29:30","23599"
"COPIEDA10LN940WU4MMG","caus_thomas_fire_v5","3H7Z272LX78NIC2JSOKQWXJS7FSPLJ","8","6","0","0","1","0","0",,"30826","2017-10-16 16:29:32","23600"
"A21FPAPLNTZ3QU","caus_thomas_fire_v5","388U7OUMF72VXTTCGN2W38RJ5060RG","0","1","0","0","0","1","0",,"18355","2017-10-16 16:29:34","23601"
"AFIFVNL3CREJN","caus_thomas_fire_v5","33FOTY3KEMMRYGPBU9G1SIB7AR91CE","8","7","0","0","0","1","0",,"23273","2017-10-16 16:29:34","23602"
"A39FHSV9N2DV2H","caus_thomas_fire_v5","3GS6S824SQY3QL25GNE01JVD57VNWE","8","8","0","0","0","1","1",,"19745","2017-10-16 16:29:40","23603"
"A3TXLHC83TPLT5","caus_thomas_fire_v5","3C2NJ6JBKAIHE54Y23PTDCFO100N2W","8","8","0","0","0","1","0",,"34446","2017-10-16 16:29:42","23604"
"A3S0INU046UTYK","caus_thomas_fire_v5","3B2X28YI3WG3VXY2MFWNCUW60GI6B1","0","0","0","0","0","1","1",,"32708","2017-10-16 16:29:54","23605"
"A2G6ISFMGZWCQN","caus_thomas_fire_v5","36PW28KO4ZX2P2MPMJFPT74DZWRAE1","8","8","0","0","0","1","0",,"38002","2017-10-16 16:29:57","23606"
"AVMC9U56S0A7H","caus_thomas_fire_v5","33CKWXB73JL7BDFDECRHBMSG6UI11O","0","0","0","0","1","0","0",,"20723","2017-10-16 16:29:58","23607"
"A2WYCY1FMQOD5F","caus_thomas_fire_v5","32RIADZISS5OXWBQEDP35LMS8E54SO","7","4","0","0","1","0","1",,"17727","2017-10-16 16:29:58","23608"
"A33BSYMO96ZPKF
","caus_thomas_fire_v5","3Z7VU45IPYI4690LMN093GCSJ8U1ZA","6","6","0","0","1","0","1",,"28088","2017-10-16 16:30:00","23609"
"AQ9QT3L1WGEPO","caus_thomas_fire_v5","37WLF8U1WPR4O02WSS9GBXFWNAQK6Y","6","6","0","0","0","1","0",,"15381","2017-10-16 16:30:10","23610"
"A2ZH6W3O33PVJZ","caus_thomas_fire_v5","3HFNH7HEMHFSWWPXHA2ZJA4UGUSQG5","8","8","0","0","0","1","0",,"16910","2017-10-16 16:30:11","23611"
"A207MWA5U0GWA5","caus_thomas_fire_v5","3KMS4QQVK2R07TV7TLCK53S9G9WKF4","8","8","0","0","1","0","0",,"18962","2017-10-16 16:30:13","23612"
"A2A07J1P6YEW6Z","caus_thomas_fire_v5","34J10VATJFZ6SNVS7Y224MHAV7KIQP","5","5","0","0","1","0","1",,"37037","2017-10-16 16:30:13","23613"
"A18V9R4S66TXC4","caus_thomas_fire_v5","32VNZTT0A75CWHBDZOPYFBHWMBLR4K","6","6","0","0","1","0","1",,"22294","2017-10-16 16:30:13","23614"
"A2N4DD7IS7EI2D","caus_thomas_fire_v5","3R8YZBNQ9HJ933EWO7Y5DXR1HR5Q7Y","8","8","0","0","1","0","0",,"28864","2017-10-16 16:30:15","23615"
"A1D2XFDSLJJK2N","caus_thomas_fire_v5","3ZQIG0FLQEHGYQBEIE0RB0PQRASVWY","4","4","0","0","0","1","1",,"37081","2017-10-16 16:30:17","23616"
"A24W1M0GILRCJ3","caus_thomas_fire_v5","3XCC1ODXDLCJLMYBXLWBIEI1I33RQ2","8","8","0","0","0","1","1",,"25874","2017-10-16 16:30:24","23617"
"AJLAQAJ1OJMEJ","caus_thomas_fire_v5","3EFE17QCRC6I98ZLTK9MZAVWDIQHSK","8","8","0","0","1","0","1",,"20361","2017-10-16 16:30:25","23618"
"A3LLOANE52R4LT","caus_thomas_fire_v5","386PBUZZXFYRW1ZLXBF6Z1XGYGMJLD","8","8","0","0","1","0","1",,"35519","2017-10-16 16:30:28","23619"
"A2391QJGLV0SYV","caus_thomas_fire_v5","354GIDR5ZB77XZ9DMAJHJCQWWA600H","0","0","0","0","1","0","1",,"10715","2017-10-16 16:30:41","23620"
"ASVU8IUWURJTW","caus_thomas_fire_v5","3U5JL4WY5KAWTDXP8NVQ4T3KNS6X4M","6","6","0","0","0","1","0",,"29800","2017-10-16 16:30:41","23621"
"A11JIMV1EQESIC
","caus_thomas_fire_v5","3KGTPGBS6XMU9VO7Z41FR77I9WMU2O","8","8","0","0","1","0","1",,"19577","2017-10-16 16:30:47","23622"
"A1BHMDRWW9ZYSO","caus_thomas_fire_v5","3FTOP5WARFPEZ5AZ8ITN1H5SVIBJ04","4","4","0","0","1","0","1",,"20664","2017-10-16 16:30:51","23623"
"A6JFRB432NWIX","caus_thomas_fire_v5","3K9FOBBF2HKNFRQ6C97YS8EX70RLNJ","8","8","0","0","1","0","0",,"54045","2017-10-16 16:30:53","23624"
"A370JTCOPKFXBB","caus_thomas_fire_v5","345LHZDEDXTJUDKQ34FKAHCAFBU3UI","4","7","0","0","1","0","0",,"29373","2017-10-16 16:30:54","23625"
"A324FQ64NCN2YS","caus_thomas_fire_v5","3IJXV6UZ1XK64OASKDR29CRFRTMRIZ","6","6","0","0","0","1","0",,"29290","2017-10-16 16:30:57","23626"
"A1BVW234RLOIY0","caus_thomas_fire_v5","3DI28L7YXAF6VE9PQ0MWI6BAV3M1E7","6","6","0","0","0","1","1",,"31071","2017-10-16 16:31:03","23627"
"A35UOR07SAT5IY","caus_thomas_fire_v5","3PB5A5BD0V7IQEKILBTTJJNZB517GR","7","7","0","0","0","1","0",,"28133","2017-10-16 16:31:09","23628"
"A2HHK2B1GUH9GX","caus_thomas_fire_v5","37WLF8U1WPR4O02WSS9GBXFWNAXK65","5","5","0","0","1","0","0",,"32212","2017-10-16 16:31:11","23629"
"A2ATR9CQ8B67P3","caus_thomas_fire_v5","382M9COHEHGM4B0NSOWGT8G760KEUK","7","8","0","0","1","0","0",,"26532","2017-10-16 16:31:13","23630"
"A26EW1ON3FZNL2","caus_thomas_fire_v5","3SNVL38CI4TT4HBX2JMJXX76JX9CKS","4","4","0","0","0","1","0",,"25228","2017-10-16 16:31:19","23631"
"ASUZOA34DXHPH","caus_thomas_fire_v5","3X1FV8S5JXSK14LE39W9PX32XM6GVO","8","8","0","0","0","1","1",,"235804","2017-10-16 16:31:22","23632"
"AQY83XO3E149M","caus_thomas_fire_v5","3QILPRALQ5WS0K6NIKYUN3SRN1T8NN","6","6","0","0","1","0","0",,"19048","2017-10-16 16:31:28","23633"
"A13EM3N99K8FRE
","caus_thomas_fire_v5","3XXU1SWE8MW3YC7VECGA8I295WI0A8","8","8","0","0","1","0","0",,"24280","2017-10-16 16:31:44","23634"
"A37DTVGS7RX6AG","caus_thomas_fire_v5","3TS1AR6UQQFCCEONARNB1YNNAQ1F70","8","8","0","0","1","0","0",,"29963","2017-10-16 16:31:47","23635"
"AW1SWNQFPIUKF","caus_thomas_fire_v5","3NJM2BJS4W7UF88DFBRRTET5D7FCPT","7","7","0","0","0","1","1",,"21159","2017-10-16 16:31:50","23636"
"A3TUCOUVSP9ZGY","caus_thomas_fire_v5","38F71OA9GTXVXHVAEXP0KGKD5FWFMB","0","0","0","0","1","0","0",,"21064","2017-10-16 16:31:51","23637"
"ADGS4U9RRZVAJ","caus_thomas_fire_v5","3M0NZ3JDP1Z3UR14NA2L66P9VP05ZZ","6","8","0","0","1","0","1",,"13421","2017-10-16 16:31:52","23638"
"A4WP2DU4JVUH0","caus_thomas_fire_v5","37U1UTWH9VNDFIYFBRFBWNX1OYI8RB","4","4","0","0","0","1","0",,"22627","2017-10-16 16:31:58","23639"
" A1GKEEI844CEKI
","caus_thomas_fire_v5","33IZTU6J812FVYZ0YOR82WJQ19ASXR","7","7","0","0","1","0","1",,"11540","2017-10-16 16:32:05","23640"
"A1QSUIQRZFQ85E","caus_thomas_fire_v5","3P1L2B7AD1Q5XCQIDO7B7XE2XAWLOY","7","8","0","0","1","0","0",,"23864","2017-10-16 16:32:06","23641"
"AVUZTZUWR8STH
","caus_thomas_fire_v5","3X4JMASXCMA8HMCNKQG63TMFNE3B0E","8","8","0","0","0","1","0",,"25433","2017-10-16 16:32:07","23642"
"A2X9VV3B0FZKHY","caus_thomas_fire_v5","3634BBTX0OV91Y5JTIR8SNDWO6CFIV","8","8","0","0","1","0","0",,"26823","2017-10-16 16:32:12","23643"
"ARIIUMV385A2T","caus_thomas_fire_v5","3IKZ72A5B4H1FZGAQY40XV9DA56NFJ","4","4","0","0","0","1","0",,"21079","2017-10-16 16:32:19","23644"
"AO75QMMJUK1OD","caus_thomas_fire_v5","3LO69W1SU3EH5Z9KP5U32O506P6LGE","8","8","0","0","1","0","1",,"29182","2017-10-16 16:32:20","23645"
"A3UWLREHFF4ZJ9","caus_thomas_fire_v5","317HQ483I7TLPQI0R6AL0SM5QXYNIA","8","8","0","0","1","0","0",,"22703","2017-10-16 16:32:21","23646"
"A33QI63NVR8CUO","caus_thomas_fire_v5","39GAF6DQWR1NXPVBLQB6IAZWVYPV17","8","8","0","0","0","1","1",,"12859","2017-10-16 16:32:21","23647"
"A797UM4MBMLMK","caus_thomas_fire_v5","3RSDURM96AN3LKKS2PT5WTMK2OVYE2","5","7","0","0","1","0","1",,"20853","2017-10-16 16:32:23","23648"
"ARJ8XLYXTWNE","caus_thomas_fire_v5","369J354OFDBZME6D21O1D5N3GTF6GN","5","5","0","0","1","0","0",,"66840","2017-10-16 16:32:23","23649"
"AIYQFHSOOC17U","caus_thomas_fire_v5","379J5II41OHJLLDTJA4F2LKOT9RLEX","6","6","0","0","0","1","0",,"24763","2017-10-16 16:32:24","23650"
"A5SPTV3W3DP4B","caus_thomas_fire_v5","3RXPCZQMQPC4FS5GWVCKI9WM8J1G13","8","8","0","0","1","0","1",,"26965","2017-10-16 16:32:31","23651"
"A13EIE0UHFJJUN","caus_thomas_fire_v5","3LS2AMNW5FRGO96V5TF7OJDW7HKQOV","8","8","0","0","0","1","1",,"20759","2017-10-16 16:32:32","23652"
"A3RSZSREFLSI1R
","caus_thomas_fire_v5","3PDJHANYK5HDMA1OM76JY5Z4VUUH61","8","8","0","0","1","0","0",,"15123","2017-10-16 16:32:44","23653"
"A3JT22BLG866CK","caus_thomas_fire_v5","3VNXK88KKCJ5MUY6P3QZXGHFT9C9VR","7","7","0","0","0","1","1",,"20451","2017-10-16 16:32:50","23654"
"AIG4TEJXXQPFJ","caus_thomas_fire_v5","3P59JYT76LLF9I9IZZB5MBLGQJN2TF","7","7","0","0","1","0","1",,"24380","2017-10-16 16:32:56","23655"
"A3037FNBVPPAY9","caus_thomas_fire_v5","33CID57104UGBNXWUQNJJUGR2K23LP","8","8","0","0","0","1","1",,"22347","2017-10-16 16:32:57","23656"
"A1RQUOVV8PCXBM","caus_thomas_fire_v5","3OLF68YTN92UVGMLHUZVBPPDBY7FAR","8","8","0","0","1","0","1",,"24193","2017-10-16 16:33:06","23657"
"A5LUC1YEAQYF6","caus_thomas_fire_v5","3PM8NZGV8YH3IIKN6K237W4PJKMXQ2","1","7","0","0","1","0","1",,"62599","2017-10-16 16:33:16","23658"
"A8HSPSD88CUTS","caus_thomas_fire_v5","3NPI0JQDAO6B1PAO1XMHIOT91S7TPJ","8","7","0","0","0","1","0",,"20600","2017-10-16 16:33:16","23659"
"A98E8M4QLI9RS","caus_thomas_fire_v5","3PH3VY7DJLYX7AGOJBPUW62MFL3ZW7","6","6","0","0","1","0","1",,"30453","2017-10-16 16:33:17","23660"
"A2G2QD9513J3QV","caus_thomas_fire_v5","30BUDKLTXDW5JWA8RNO8LWOR7JR5ET","7","7","0","0","1","0","0",,"36968","2017-10-16 16:33:22","23661"
"A19JJ2RIRTWJOT","caus_thomas_fire_v5","3NPI0JQDAO6B1PAO1XMHIOT91S9TPL","1","5","0","0","1","0","0",,"20393","2017-10-16 16:33:25","23662"
"A1UJRYZA3748OU","caus_thomas_fire_v5","35BLDD71I6YKSLGJT1KYA4J88CXZVT","4","6","0","0","0","1","1",,"10415","2017-10-16 16:33:27","23663"
"A125KW9P18V5Z1","caus_thomas_fire_v5","317HQ483I7TLPQI0R6AL0SM5QWRINW","4","4","0","0","1","0","1",,"22792","2017-10-16 16:33:41","23664"
"AW6DOBYV5GVN6
","caus_thomas_fire_v5","3PDJHANYK5HDMA1OM76JY5Z4VUV6HR","8","6","0","0","0","1","1",,"21356","2017-10-16 16:33:48","23665"
"A28A7NZUJWGZ7Q","caus_thomas_fire_v5","3CP1TO84PT2DOGYSY3T7JVF2AG225P","4","4","0","0","1","0","1",,"13127","2017-10-16 16:33:49","23666"
"A1DUPOUC9RNU4L","caus_thomas_fire_v5","3TR2532VIPV9DGWEA794AIFJ8MYJ68","4","4","0","0","1","0","0",,"35953","2017-10-16 16:33:57","23667"
"A3FY7A6Z3EVNRX","caus_thomas_fire_v5","3WYP994K17SZ85RDW7A7K5U7LQ86YQ","4","4","0","0","1","0","1",,"21529","2017-10-16 16:34:05","23668"
"A5I5HAQ9AQ8MK","caus_thomas_fire_v5","3GFK2QRXX9IZ0WWZCNIE72VRENW5W9","6","6","0","0","0","1","0",,"27387","2017-10-16 16:34:07","23669"
"A231ZXYHPSNUJQ","caus_thomas_fire_v5","3OB0CAO74HQF5UBUSQ1BHWJXU4NYHI","8","8","0","0","1","0","0",,"18951","2017-10-16 16:34:17","23670"
"A28QLOS1IM95E2","caus_thomas_fire_v5","3PS7W85Z8Z3Q92UHK8QKWYTUWPXT9Y","8","8","0","0","0","1","0",,"45680","2017-10-16 16:34:20","23671"
"A3OC3VQF3CZ5T0
","caus_thomas_fire_v5","38F5OAUN5NDWQAFT5HBB4JZ0Q5EH70","4","8","0","0","1","0","1",,"25281","2017-10-16 16:34:24","23672"
"A2QX32WKT0QAB4","caus_thomas_fire_v5","3X4MXAO0BGPO5JUX9UVHA30N65LRW9","8","8","0","0","1","0","0",,"26385","2017-10-16 16:34:33","23673"
"A1P3BFHCEJL70F","caus_thomas_fire_v5","3PJUZCGDJ6H7BI2THAFP52X7ICD98Q","4","4","0","0","0","1","1",,"23711","2017-10-16 16:34:36","23674"
"A2Y5JHUKSCZC1Q","caus_thomas_fire_v5","34MAJL3QP4OKDFQBOYO2XDEGGY743X","8","8","0","0","0","1","0",,"18814","2017-10-16 16:34:42","23675"
"A1GWM8H8W65VYM","caus_thomas_fire_v5","3Z4XG4ZF48SXCEKRKQL3L5JPPF48X8","3","3","0","0","0","1","0",,"28933","2017-10-16 16:34:49","23676"
"A3U59UC1EHE1VC","caus_thomas_fire_v5","3TXD01ZLD4I4C93U3IK3KM4GTBR4U5","8","8","0","0","0","1","0",,"24240","2017-10-16 16:35:04","23677"
"A1IS0218RVG60K","caus_thomas_fire_v5","3M68NM076H8QB4FRICIDC91AI2PR63","6","6","0","0","1","0","0",,"11083","2017-10-16 16:35:12","23678"
"AU6ZURVHX4KPT","caus_thomas_fire_v5","3L4PIM1GQTHSUOPXOVD5V0L3HCHRY2","6","6","0","0","0","1","1",,"54895","2017-10-16 16:35:13","23679"
"A28LAYU7U1Q4VR","caus_thomas_fire_v5","3M23Y66PO282CJF4X1II2J6645C6SC","2","3","0","0","1","0","1",,"9337","2017-10-16 16:35:15","23680"
"A27B32LMSFURBR","caus_thomas_fire_v5","3RSDURM96AN3LKKS2PT5WTMK2OWEYJ","4","4","0","0","0","1","1",,"23971","2017-10-16 16:35:17","23681"
"A1H1ZROJJ360M7","caus_thomas_fire_v5","354P56DE9K4LGJT9GBNA8X62ZGVS7W","2","2","0","0","1","0","1",,"48269","2017-10-16 16:35:28","23682"
"A18ALHIOI8EKKF","caus_thomas_fire_v5","3YHH42UU5BGKUVYZB350HWIKZ7A0LH","6","6","0","0","0","1","1",,"26591","2017-10-16 16:35:34","23683"
"A33QI63NVR8CUO","caus_thomas_fire_v5","39GAF6DQWR1NXPVBLQB6IAZWVYPV17","8","8","0","0","1","0","0",,"22726","2017-10-16 16:35:36","23684"
"AWVAP91L046Q3","caus_thomas_fire_v5","3JJVG1YBEBY7CTYOHWMIKOI64LDB5W","8","8","0","0","0","1","0",,"9060","2017-10-16 16:35:39","23685"
"A17VJGXGBNEL9E","caus_thomas_fire_v5","3DUZQ9U6SMPNR9U5Y9QQEBM5LY2SVO","6","4","0","0","0","1","1",,"26760","2017-10-16 16:35:39","23686"
"AK8UFPN8QOSK5","caus_thomas_fire_v5","3A0EX8ZRN8P5EH88SYRFVLGZZQCYBU","6","3","0","0","0","1","1",,"49398","2017-10-16 16:35:41","23687"
"AWMR72SABXTY4","caus_thomas_fire_v5","3DQQ64TANGM3T6EIW2RS58085NXWPM","8","5","0","0","0","1","0",,"42247","2017-10-16 16:35:45","23688"
"A12EQIULBHM4HJ","caus_thomas_fire_v5","3QY7M81QH7NNS0G1B2E8HBFSILB7KL","7","7","0","0","0","1","0",,"14685","2017-10-16 16:35:49","23689"
"AJE8ER94166G2","caus_thomas_fire_v5","31IBVUNM9S0EN4PJSPQR7C3QW89FVT","7","7","0","0","0","1","0",,"14994","2017-10-16 16:35:56","23690"
"A21H6PJDHFR74C","caus_thomas_fire_v5","3TEM0PF1Q5Y1WJA7YM7CYJAFQY80D1","4","4","0","0","0","1","1",,"23297","2017-10-16 16:36:02","23691"
"A2ZU6GSQGZ2L8L","caus_thomas_fire_v5","3XLBSAQ9Z4DIHVFNB3HI4Q35MVW7ZH","8","8","0","0","1","0","1",,"17244","2017-10-16 16:36:05","23692"
"A20EU0UH5K3VGE","caus_thomas_fire_v5","3LBXNTKX0RWXQJ31PIRHL1E09KI9XS","2","7","0","0","1","0","0",,"26679","2017-10-16 16:36:08","23693"
"A2OZ9Q6UXXTANN","caus_thomas_fire_v5","3JBT3HLQF837N1JN7PBZ4CUQMP2PZ6","8","4","0","0","0","1","0",,"19075","2017-10-16 16:36:12","23694"
"A22LLCN5WBKJJI","caus_thomas_fire_v5","3PQ8K71NHXLZZP5D6ED3XOEMEIVAAA","6","4","0","0","0","1","0",,"10340","2017-10-16 16:36:14","23695"
"A2U1DKWF8W1QRD","caus_thomas_fire_v5","3I02618YA07Q12PD12CRNKFBK7MUPL","4","4","0","0","1","0","1",,"38076","2017-10-16 16:36:25","23696"
"A1OB3NPURPFKVZ","caus_thomas_fire_v5","3MX2NQ3YC9VEPW1PMSE09L9YNP2X5U","4","4","0","0","0","1","1",,"34607","2017-10-16 16:36:39","23697"
"A3H5RJP6K9R8G6","caus_thomas_fire_v5","3PQMUDRV7R7TBP79UQXTVKQO4Y5IIQ","8","8","0","0","1","0","0",,"30899","2017-10-16 16:36:42","23698"
" A3FO0P0MLGMP7N
","caus_thomas_fire_v5","30BUDKLTXDW5JWA8RNO8LWOR7JS5EU","4","4","0","0","1","0","1",,"32016","2017-10-16 16:36:49","23699"
"A2GIZDKKCGN6V1","caus_thomas_fire_v5","3NS0A6KXC491AOQO46LCA3GYLYFGZT","8","8","0","0","0","1","0",,"23906","2017-10-16 16:36:52","23700"
"A16J4BMYULRUZ7","caus_thomas_fire_v5","3EFVCAY5L3AWHUF23M62UWBAEHPJ8V","8","8","0","0","0","1","0",,"16667","2017-10-16 16:37:02","23701"
"ARTPM9JT7DA1P","caus_thomas_fire_v5","3OONKJ5DKCKTK346MBIHTUIXLHKBO5","8","8","0","0","0","1","1",,"18231","2017-10-16 16:37:02","23702"
"A3IPMCB9WI5B3M","caus_thomas_fire_v5","3CP1TO84PT2DOGYSY3T7JVF2AG325Q","6","6","0","0","0","1","1",,"18155","2017-10-16 16:37:04","23703"
"A3J85WP15JFYW0","caus_thomas_fire_v5","3KJYX6QCM9CUS6BFBFHCMAVIPEMJVU","5","5","0","0","0","1","1",,"24821","2017-10-16 16:37:13","23704"
"ASBFQMNL7JISY","caus_thomas_fire_v5","3Z7VU45IPYI4690LMN093GCSJ8TZ17","6","6","0","0","0","1","1",,"20257","2017-10-16 16:37:17","23705"
"A27PFM5U7ULUE9","caus_thomas_fire_v5","3LOTDFNYA70R2TPOIZVNTEM43HBWFK","6","6","0","0","0","1","0",,"46378","2017-10-16 16:37:18","23706"
"A3AS4FEB057TRG","caus_thomas_fire_v5","36NEMU28XFEX83H54MZ0O46D0HLMWD","5","5","0","0","0","1","0",,"35860","2017-10-16 16:37:19","23707"
"A23XJ8I86R0O3B","caus_thomas_fire_v5","3C8HJ7UOP7V12YMAF9J7N80VHKQZMJ","0","8","0","0","1","0","0",,"45695","2017-10-16 16:37:20","23708"
"A1N4P4XGQM7NXE","caus_thomas_fire_v5","3RJSC4XJ10V6S6VEJGPT07MNDIH052","0","0","0","0","1","0","0",,"3032","2017-10-16 16:37:22","23709"
"A2E3869S2NGWP0
","caus_thomas_fire_v5","34MAJL3QP4OKDFQBOYO2XDEGGY834X","3","4","0","0","1","0","1",,"4822","2017-10-16 16:37:26","23710"
"A17FDM5CXENC1O","caus_thomas_fire_v5","3MMN5BL1WZ50H5FHU2OYJ7VG2PT3MS","6","6","0","0","1","0","0",,"13583","2017-10-16 16:37:28","23711"
"A3TS2NCBAB9L6V","caus_thomas_fire_v5","3VNL7UK1XFKZACLUNUQC6UF5ZNTTFR","8","8","0","0","0","1","0",,"24804","2017-10-16 16:37:30","23712"
"A2W2DQ1IYGWCAW","caus_thomas_fire_v5","3GFK2QRXX9IZ0WWZCNIE72VRENXW51","5","7","0","0","1","0","0",,"27153","2017-10-16 16:37:32","23713"
"A1ZF2GZ2ZRV8OY","caus_thomas_fire_v5","3L2IS5HSFAJQYHD0LNZZJVAGKSLNUI","5","5","0","0","1","0","0",,"24855","2017-10-16 16:37:33","23714"
"A1I3F99BZ6PWUN","caus_thomas_fire_v5","3WR9XG3T63C2EYRYQARSAUQWL0U746","4","4","0","0","1","0","1",,"28531","2017-10-16 16:37:34","23715"
"  A23LQAXUDA5XU
","caus_thomas_fire_v5","3ZPPDN2SLVXOKJCKUD1PXCTTTFB9EP","7","7","0","0","0","1","0",,"48077","2017-10-16 16:37:38","23716"
"A37O1W3434JMMY","caus_thomas_fire_v5","3W8CV64QJ2004T3MKE9VIFQ6LV39H5","8","8","0","0","1","0","1",,"62048","2017-10-16 16:37:39","23717"
"A1VQCP17EVM7MI","caus_thomas_fire_v5","3VNL7UK1XFKZACLUNUQC6UF5ZNUFTE","7","7","0","0","0","1","1",,"12897","2017-10-16 16:37:40","23718"
"A1UUXS11BBL23H","caus_thomas_fire_v5","31EUONYN2V48TH2CRS9HU6C4O90VOV","8","8","0","0","0","1","1",,"28314","2017-10-16 16:37:43","23719"
"A1E063VNV4XJ5V","caus_thomas_fire_v5","3VHHR074H3IYC6YJW2Q9WBS77MP7LZ","7","7","0","0","0","1","1",,"21812","2017-10-16 16:37:53","23720"
"A2SDZBZH6JQ4R9","caus_thomas_fire_v5","3R0T90IZ1SDO2VFECS14Z5FDCGUGCV","5","7","0","0","1","0","1",,"14487","2017-10-16 16:37:54","23721"
"A1NCLFUVMDFE4H","caus_thomas_fire_v5","3V5Q80FXIXSAA1BOKK5E4YHIWKC321","6","6","0","0","0","1","0",,"20702","2017-10-16 16:37:59","23722"
"A31BO9NWS3PW78","caus_thomas_fire_v5","3Y9N9SS8LYCXDB94H9PV0H8MTB13DA","2","2","0","0","1","0","1",,"20166","2017-10-16 16:38:05","23723"
"A3EM25WEHB1Y9W","caus_thomas_fire_v5","3OHYZ19UGC6O1TZEGXILYJYR3ZYOAM","8","8","0","0","0","1","1",,"60320","2017-10-16 16:38:07","23724"
"A2X35ZS8OQSDUT","caus_thomas_fire_v5","3U4J9857OECMZXC75P1FI8W2VS9B7E","8","8","0","0","1","0","1",,"39386","2017-10-16 16:38:08","23725"
"A3GKM4KL7NPN8R","caus_thomas_fire_v5","3QXNC7EIPIWPTTXQM62ACNRPZE209V","8","8","0","0","1","0","0",,"22106","2017-10-16 16:38:10","23726"
"AOO53KIMNLQNM
AOO53KIMNLQNM
","caus_thomas_fire_v5","3VP0C6EFSGXZEO2ZD4MWQA70CGV6M1","8","8","0","0","0","1","0",,"25738","2017-10-16 16:38:11","23727"
"A2HOR5GFCXLPIO","caus_thomas_fire_v5","3TE3O8573092T3WQVA6AMWKY2YS2R4","8","8","0","0","1","0","0",,"30750","2017-10-16 16:38:11","23728"
"A36BQYQGN6OWVU","caus_thomas_fire_v5","3C44YUNSI1Q4K0ERF7M2DKBNY6LPDY","6","6","0","0","1","0","1",,"19257","2017-10-16 16:38:18","23729"
"A3CCF8NBJTJUCB","caus_thomas_fire_v5","3ON104KXQKXH4DSZYIZ42APDEQ04W0","4","4","0","0","1","0","0",,"17403","2017-10-16 16:38:19","23730"
"A1S67G5HXEVH92","caus_thomas_fire_v5","3ERET4BTVMAR6J4UQZCSV76YDC8K9L","8","8","0","0","0","1","1",,"16024","2017-10-16 16:38:23","23731"
"A8VFIXE5FL8C6","caus_thomas_fire_v5","3N1FSUEFL51IV7S8HNUEAM0S7BXD45","8","8","0","0","1","0","1",,"10278","2017-10-16 16:38:24","23732"
"A1V3TZ069T2B53

","caus_thomas_fire_v5","3QL2OFSM96JUCNW0ZWEZPPOADSGNCA","8","8","0","0","1","0","1",,"17006","2017-10-16 16:38:28","23733"
"A132H53I8VX2OC","caus_thomas_fire_v5","3B837J3LDOXVY2DOPPLGDEX20SQRSV","6","2","0","0","0","1","0",,"41833","2017-10-16 16:38:34","23734"
"A1UR1251ID43N5","caus_thomas_fire_v5","3HPZF4IVNMUOOM0E6YNA65MHHCJYCA","4","8","0","0","1","0","1",,"49282","2017-10-16 16:38:49","23735"
"A3BUKQ7ZGNS3UU","caus_thomas_fire_v5","35BLDD71I6YKSLGJT1KYA4J88D3VZX","6","6","0","0","1","0","1",,"37552","2017-10-16 16:39:00","23736"
"A1BH6H9WRK49I","caus_thomas_fire_v5","3MB8LZR5BFUM7L53FWFI0GXTD5FKL6","5","5","0","0","1","0","1",,"20145","2017-10-16 16:39:04","23737"
"AFKIHFDY5MDA5","caus_thomas_fire_v5","3YJ6NA41JBHHNMEJP38DGI603RPJPF","8","8","0","0","1","0","0",,"34303","2017-10-16 16:39:09","23738"
"A39W9OI3G9G95Q","caus_thomas_fire_v5","3CPLWGV3MO0SEPPXNC48NZN277D9NF","8","8","0","0","0","1","1",,"27285","2017-10-16 16:39:16","23739"
"A14QHWM66FV1K6
","caus_thomas_fire_v5","3HL8HNGX452GQXCGPOLVFUET5GR9F8","4","4","0","0","1","0","0",,"34754","2017-10-16 16:39:17","23740"
"A229AL88SNZJS7","caus_thomas_fire_v5","3Z4GS9HPNVBZXL9HS8PZD6A6C1C77G","8","7","0","0","0","1","0",,"17293","2017-10-16 16:39:21","23741"
" AQK6V5BZXED19","caus_thomas_fire_v5","3Q5C1WP23M26ZVGWFZTTEC5XIAP51C","7","7","0","0","0","1","0",,"36851","2017-10-16 16:39:35","23742"
"A2N9Q1IHLP4LGI","caus_thomas_fire_v5","324G5B4FB39LFA9X794QYR0J4OD07I","4","7","0","0","1","0","0",,"15627","2017-10-16 16:39:45","23743"
"AUG9SHX7VWH7Z","caus_thomas_fire_v5","3II4UPYCOJ8PKCF6FK1RDP1X33FDQN","1","5","0","0","0","1","1",,"7448","2017-10-16 16:39:48","23744"
"AY4E4CDN0J6JL","caus_thomas_fire_v5","33L7PJKHCGZQVXB7FGK6W2YJCJHT8B","6","6","0","0","1","0","0",,"22488","2017-10-16 16:39:55","23745"
"A1PBRKFHSF1OF8","caus_thomas_fire_v5","3T111IHZ5ERDTNHPGJLPWJSC842R9L","8","8","0","0","1","0","1",,"13518","2017-10-16 16:39:56","23746"
"A2ZBKJCZPT4Z0V","caus_thomas_fire_v5","3L0KT67Y8EH4V3PA3KDALAQZ3F6SYZ","8","8","0","0","1","0","1",,"20428","2017-10-16 16:39:58","23747"
"A3JHX41MA5F1SP","caus_thomas_fire_v5","3RGU30DZTA9B2JH6XNGLZEC5YMEJMJ","6","8","0","0","1","0","0",,"57281","2017-10-16 16:39:59","23748"
"A12YGHUPJN155L","caus_thomas_fire_v5","3DBQWDE4Y6Z9D2NLKMRRBJI0LBU5NK","6","6","0","0","1","0","1",,"40135","2017-10-16 16:40:01","23749"
"A36D1KTSA69LM6","caus_thomas_fire_v5","3PS7W85Z8Z3Q92UHK8QKWYTUWPZT90","8","8","0","0","0","1","1",,"19656","2017-10-16 16:40:08","23750"
"AZDA36CV0DWI1","caus_thomas_fire_v5","3TXD01ZLD4I4C93U3IK3KM4GTBSU4W","8","8","0","0","0","1","1",,"16106","2017-10-16 16:40:10","23751"
"A18ALHIOI8EKKF","caus_thomas_fire_v5","3YHH42UU5BGKUVYZB350HWIKZ7A0LH","5","6","0","0","1","0","1",,"15035","2017-10-16 16:40:12","23752"
"A12H4QENEVBRSB","caus_thomas_fire_v5","30X31N5D63R3ZLR7NEZUIO8S0O2AS6","8","8","0","0","0","1","1",,"40410","2017-10-16 16:40:20","23753"
"A3N7R7P9HP2YB6","caus_thomas_fire_v5","3A9AA95ATWN9GNZY014JF8NVLPM5P5","6","5","0","0","1","0","0",,"14988","2017-10-16 16:40:26","23754"
"A2GW9AEY7SJ290","caus_thomas_fire_v5","3RXCAC0YIRQMQSP1VGLZXJJUMP98GH","8","8","0","0","1","0","1",,"44228","2017-10-16 16:40:28","23755"
"A1YPKT2UPUQ464","caus_thomas_fire_v5","3Y9N9SS8LYCXDB94H9PV0H8MTB03D9","4","5","0","0","1","0","1",,"124868","2017-10-16 16:40:36","23756"
"A2MPCT1O95PVL9","caus_thomas_fire_v5","39ASUFLU6X8ELFUIXT73DFFB0I3XEX","4","4","0","0","0","1","0",,"13620","2017-10-16 16:40:37","23757"
"A3UQXYJ8EV62WE","caus_thomas_fire_v5","3XIQGXAUMC9TC0F8ALTX75NUEUPX7Z","5","7","0","0","1","0","0",,"26134","2017-10-16 16:40:46","23758"
"A1H4GJFI4NJWKV","caus_thomas_fire_v5","3TXD01ZLD4I4C93U3IK3KM4GTBT4U7","4","8","0","0","1","0","1",,"15580","2017-10-16 16:40:46","23759"
"A1F1OZ54G177D8","caus_thomas_fire_v5","35GMH2SV3EIRR6GQW2K7U2OIODPEOY","6","4","0","0","0","1","0",,"9563","2017-10-16 16:40:57","23760"
"A3NKTB1JU5AKIW","caus_thomas_fire_v5","3HRMW88U16R40DGKBF6FH9X9ZC3M08","8","8","0","0","0","1","0",,"26635","2017-10-16 16:41:09","23761"
"A23A1WMFNPETYQ","caus_thomas_fire_v5","3RRCEFRB7MDPGAUO3R38FWCS4QLB4W","8","8","0","0","0","1","0",,"22305","2017-10-16 16:41:19","23762"
"A2I84FKOQ8Q2IK","caus_thomas_fire_v5","3F0BG9B9MPOIC55IFHFZQJU3G1SY7H","5","5","0","0","0","1","0",,"38956","2017-10-16 16:41:21","23763"
"A1SEM0YHNWYL7B","caus_thomas_fire_v5","31Z0PCVWUKGMVJ6O5BS0I22O1ZB7T2","4","4","0","0","0","1","1",,"58182","2017-10-16 16:41:24","23764"
"AVJUIF9QHQRY8","caus_thomas_fire_v5","3FK0YFF9PZH3J1B9S4VVPY6CK2YVVY","8","8","0","0","0","1","0",,"19218","2017-10-16 16:41:31","23765"
"A3KIZLHCD945UK
A3KIZLHCD945UK
","caus_thomas_fire_v5","39GAF6DQWR1NXPVBLQB6IAZWVYS1VG","8","8","0","0","1","0","1",,"24453","2017-10-16 16:41:33","23766"
"A24NKUCAX1LURL","caus_thomas_fire_v5","3HUTX6F6VUOZWQ4A3IP6S1FTRB72OU","8","8","0","0","0","1","1",,"45670","2017-10-16 16:41:33","23767"
"A36793QL7HS6JB","caus_thomas_fire_v5","3L4D84MILZTPA5GV6Q087949H0GJHB","5","5","0","0","0","1","0",,"38986","2017-10-16 16:41:35","23768"
"A208WEZYBBV5JQ","caus_thomas_fire_v5","3Q5ZZ9ZEVOGOAV0HEK28TMS5WGW850","4","4","0","0","1","0","0",,"10127","2017-10-16 16:41:49","23769"
"A3SHLGG66PJXEB","caus_thomas_fire_v5","3TXMY6UCAEPFFK9SFO6GTJJFI32CQL","7","7","0","0","1","0","0",,"27388","2017-10-16 16:41:52","23770"
"A22JBMOHQKHTSS","caus_thomas_fire_v5","32VNZTT0A75CWHBDZOPYFBHWMBER4D","0","0","0","0","0","1","0",,"19884","2017-10-16 16:42:02","23771"
"A30UP25605Z1AI","caus_thomas_fire_v5","3SB4CE2TJVWBV2D6HO5HHWPKF36AXG","8","8","0","0","1","0","0",,"17768","2017-10-16 16:42:04","23772"
"A2TN0N04728YLI
","caus_thomas_fire_v5","3PM8NZGV8YH3IIKN6K237W4PJLRXQ9","6","6","0","0","0","1","0",,"25144","2017-10-16 16:42:17","23773"
"A3EQ0CO7355BHE","caus_thomas_fire_v5","3R2PKQ87NW9F78X0F5VLNDX5L7PMIA","8","8","0","0","1","0","0",,"43434","2017-10-16 16:42:25","23774"
"A3R0V7F5LPVVAH","caus_thomas_fire_v5","3C2NJ6JBKAIHE54Y23PTDCFO1142NH","6","4","0","0","0","1","1",,"18929","2017-10-16 16:42:34","23775"
"A31ZMKF1XY6SFF","caus_thomas_fire_v5","3M81GAB8A0KW5FHM1OALIZDX0I1QBR","8","8","0","0","0","1","1",,"22849","2017-10-16 16:42:38","23776"
"A248P03SBIGVNH","caus_thomas_fire_v5","3PWWM24LHSZWBYHUW10AVFPTC5V82N","4","4","0","0","0","1","0",,"7709","2017-10-16 16:42:48","23777"
"A1HTGJHA0BOP18","caus_thomas_fire_v5","3E1QT0TDFPA0MJVWL4L2IVWA122I8K","6","6","0","0","1","0","1",,"27639","2017-10-16 16:43:05","23778"
"A39A2VKDK81MZ
","caus_thomas_fire_v5","34HJIJKLP5X4POSU88U8G86Z7I24VW","5","5","0","0","0","1","1",,"60887","2017-10-16 16:43:12","23779"
"A3Q4T34SDWIHU9","caus_thomas_fire_v5","31QNSG6A5RU3XZE02DH5R661NMR78E","4","4","0","0","0","1","1",,"23826","2017-10-16 16:43:20","23780"
"A1I2YR8WRA06ES","caus_thomas_fire_v5","3NKQQ8O39Y6HC5MNWTLWNQYM6OMDUT","4","4","0","0","1","0","0",,"18266","2017-10-16 16:43:25","23781"
"AR95C0P53AFWJ","caus_thomas_fire_v5","3RKNTXVS3MZKX0PWXD3CKLSMM824AW","4","4","0","0","1","0","0",,"16960","2017-10-16 16:43:36","23782"
"ASX1CKKF6OXL1","caus_thomas_fire_v5","3QJOXOW4XJS3R3VEJM5U2YZDTEKEMV","8","8","0","0","0","1","0",,"21893","2017-10-16 16:43:40","23783"
"A10G3CUJ1XUTB
","caus_thomas_fire_v5","3STRJBFXOWSAQYD8O5H9M77A7JBTKU","4","4","0","0","1","0","1",,"18138","2017-10-16 16:43:46","23784"
"A1Z8UIU2M2X9XE","caus_thomas_fire_v5","3DYGAII7PL9Y99IWKTSMDJIMHMJQPF","5","3","0","0","0","1","0",,"22479","2017-10-16 16:43:48","23785"
"A1B65EVDS55AME","caus_thomas_fire_v5","36WLNQG78ZB78CRHSXFLOIOJHFEBE1","7","5","0","0","1","0","1",,"17161","2017-10-16 16:44:05","23786"
"A2ACWPHIEDF8UH","caus_thomas_fire_v5","354GIDR5ZB77XZ9DMAJHJCQWWAA00L","5","5","0","0","1","0","0",,"7274","2017-10-16 16:44:06","23787"
"A2HTN7HCNBQ8V4","caus_thomas_fire_v5","37UQDCYH6XW18BADA6SFJKQ9YKPV74","4","4","0","0","1","0","1",,"17453","2017-10-16 16:44:07","23788"
"AK7FDS2KRJZLA","caus_thomas_fire_v5","36ZN444YTRZ37BICSLAYFHMAG76ION","5","5","0","0","1","0","0",,"73802","2017-10-16 16:44:08","23789"
"A1ZHX85H6OKMKK","caus_thomas_fire_v5","3KJYX6QCM9CUS6BFBFHCMAVIPFSJV2","1","8","0","0","1","0","1",,"10284","2017-10-16 16:44:25","23790"
"A9EXAVO1HNLUK","caus_thomas_fire_v5","3BWI6RSP7GAK60ORFG35JG2NYPP7ED","8","4","0","0","0","1","1",,"151131","2017-10-16 16:44:29","23791"
"A1M1AD5KPXNGUG","caus_thomas_fire_v5","3Q5C1WP23M26ZVGWFZTTEC5XI9H15Y","8","8","0","0","0","1","1",,"44073","2017-10-16 16:44:34","23792"
"A22RR2Q0OC1JQ0","caus_thomas_fire_v5","3UJ1CZ6IZHQ6TFFQSI8DADS68A45SY","7","7","0","0","0","1","0",,"16815","2017-10-16 16:44:36","23793"
"A3EXIUOGZVV132","caus_thomas_fire_v5","3AAPLD8UCCIJO8C0IKEC9FRIF28HTF","4","4","0","0","0","1","0",,"32929","2017-10-16 16:44:42","23794"
"A4HNS81WU3KY1
","caus_thomas_fire_v5","3QUO65DNQUP8G2DCM2ZCYKALA2TOU1","8","8","0","0","0","1","0",,"30965","2017-10-16 16:44:44","23795"
"AAASQIW3J32OL","caus_thomas_fire_v5","3C6FJU71TQUKAGHESP8A0B8NOBHUY5","4","4","0","0","0","1","0",,"24636","2017-10-16 16:44:47","23796"
"A23OR0D1FCUVMM","caus_thomas_fire_v5","3H0W84IWBK3UOJ86OU1BOXTNZ1JREW","7","5","0","0","1","0","0",,"27753","2017-10-16 16:44:59","23797"
"A1C0H8G0YI15MN","caus_thomas_fire_v5","37QW5D2ZRGNPGXYSQGFGMX2XA048S2","1","7","0","0","1","0","0",,"29130","2017-10-16 16:44:59","23798"
"A31DI99CWPTJBK","caus_thomas_fire_v5","39LOEL67OS6LWGDD01EFEPULIK683B","2","2","0","0","1","0","1",,"15703","2017-10-16 16:45:04","23799"
"A3FQDPUAXJB0BS","caus_thomas_fire_v5","37W3JXSD669X2K6JNPNBIZTK9S3WYJ","6","6","0","0","0","1","1",,"23276","2017-10-16 16:45:15","23800"
"A3R49IX92OSJ1Z","caus_thomas_fire_v5","3UXUOQ9OKEYHGN7FZB1JNXCWDAS7AJ","8","8","0","0","1","0","1",,"31917","2017-10-16 16:45:15","23801"
"A2ZOM62DKMSWDK","caus_thomas_fire_v5","30IQTZXKAK7FUPFOPM8OSQD76HV0XG","4","4","0","0","1","0","1",,"19619","2017-10-16 16:45:17","23802"
"A2YHHTA5ZM8BYV","caus_thomas_fire_v5","3A4NIXBJ760HX95608SYFTPX2BLLMP","8","8","0","0","1","0","1",,"37020","2017-10-16 16:45:21","23803"
"A2OBE0CGMN1RFN","caus_thomas_fire_v5","3HL8HNGX452GQXCGPOLVFUET5GT9FA","8","8","0","0","0","1","1",,"23936","2017-10-16 16:45:22","23804"
"ASWCSRH05NVCT","caus_thomas_fire_v5","3GA6AFUKOOPEPRE6358LR2NKL3W3HL","7","7","0","0","0","1","0",,"20447","2017-10-16 16:45:22","23805"
"AVPITE4HFF3BE","caus_thomas_fire_v5","3AWETUDC92TF6FWJUULFVFTE0B9ZI6","3","5","0","0","1","0","1",,"26489","2017-10-16 16:45:30","23806"
"A2WVH84QT97HX2","caus_thomas_fire_v5","3HMVI3QICJT41JQGQ1YQP93QDEOY1E","8","6","0","0","1","0","0",,"6822","2017-10-16 16:45:50","23807"
"A276TOSEU7TQ8Y","caus_thomas_fire_v5","3FFJ6VRIL1PI4UQTQ08NPGQSI4RI0Y","8","8","0","0","1","0","1",,"22598","2017-10-16 16:45:51","23808"
"ABSBKX1MUPLYB","caus_thomas_fire_v5","3VSOLARPKBALALWN5TKTELPW2QO931","6","6","0","0","1","0","0",,"16920","2017-10-16 16:46:00","23809"
"A397QMUM40C4SH","caus_thomas_fire_v5","33ISQZVXPPNBLJZ9A65L9EUYEO1CCG","8","8","0","0","1","0","0",,"15550","2017-10-16 16:46:03","23810"
"A1MDZ1K2AL9EKW","caus_thomas_fire_v5","358UUM7WRZ49F4TW1MN5IN16DEF7RQ","4","8","0","0","1","0","0",,"62031","2017-10-16 16:46:07","23811"
"AX8RDFKYAO9BX","caus_thomas_fire_v5","3K772S5NP8CHZPU3SPPHATRHCSMEHN","8","8","0","0","0","1","1",,"21086","2017-10-16 16:46:13","23812"
"A25GE1R6D38S65","caus_thomas_fire_v5","3D3VGR7TA0GRELS9ZAKF56PQ8CUR36","4","4","0","0","1","0","1",,"26325","2017-10-16 16:46:32","23813"
"A3IGZ3N6TNPXUU","caus_thomas_fire_v5","3WOKGM4L71HS0G1WOVLS9DMEUCF0OY","6","7","0","0","1","0","1",,"17092","2017-10-16 16:46:36","23814"
"A1WA3VMWGQJPYS","caus_thomas_fire_v5","3NGI5ARFTT6AS5YFZE27CIAE9AR1PV","7","7","0","0","1","0","0",,"15016","2017-10-16 16:46:53","23815"
"A3SNGY0NZGMG8E","caus_thomas_fire_v5","3WAKVUDHUWH1VWLD5GIANYOQKDJU7H","8","8","0","0","1","0","0",,"30678","2017-10-16 16:47:00","23816"
"ASY5RV4HJQ72C","caus_thomas_fire_v5","3W92K5RLWUIML7WUMDDIL0CD7EXV5S","6","6","0","0","0","1","1",,"24610","2017-10-16 16:47:03","23817"
"A3KX8PBHVFQZ3U","caus_thomas_fire_v5","3YOH7BII098P3QHXT0HONPVV43KKVS","7","7","0","0","0","1","0",,"38627","2017-10-16 16:47:03","23818"
"A10GEY7YR0USLU","caus_thomas_fire_v5","3NGMS9VZTLJPR73TSALNPQ048EOFF8","6","6","0","0","0","1","1",,"43852","2017-10-16 16:47:05","23819"
"AK35CJJEYFVYK
","caus_thomas_fire_v5","3NQL1CS15R9KNV6EXFIFWXA62J1VY8","7","2","0","0","1","0","0",,"25452","2017-10-16 16:47:08","23820"
"A1L5H5KX16J1LS","caus_thomas_fire_v5","3L4D84MILZTPA5GV6Q087949H0IJHD","8","8","0","0","0","1","1",,"21442","2017-10-16 16:47:17","23821"
"AP37QQ9AABSY9","caus_thomas_fire_v5","3Z4GS9HPNVBZXL9HS8PZD6A6C2M77S","6","6","0","0","0","1","0",,"39924","2017-10-16 16:47:18","23822"
"A2A6FH0F7LD9ND","caus_thomas_fire_v5","3KYQYYSHYV8MZ02Q079NOK6XO1ODO4","8","8","0","0","1","0","0",,"22934","2017-10-16 16:47:23","23823"
"A2KMIQV3LK96T0","caus_thomas_fire_v5","308XBLVESI5WHGWME3ZLNPN2W47RBX","4","4","0","0","1","0","1",,"23491","2017-10-16 16:47:27","23824"
"A1QUNP6IYOQMZ5","caus_thomas_fire_v5","3J4Q2Z4UTY4OTIFXWF6H5DQIAJNWQH","6","4","0","0","1","0","0",,"6423","2017-10-16 16:47:31","23825"
"AT6LDQNLKTUSE","caus_thomas_fire_v5","3OONKJ5DKCKTK346MBIHTUIXLGHBO0","6","6","0","0","0","1","0",,"23282","2017-10-16 16:47:35","23826"
"AW7RJ863Q6RTT","caus_thomas_fire_v5","3FTF2T8WLRJI1JYBFDVVJI0T0JJW9V","8","8","0","0","1","0","0",,"19752","2017-10-16 16:47:37","23827"
"ATBGHQ2VYNIVZ","caus_thomas_fire_v5","3IGI0VL647LVLCT3P1NQKPIR261NO9","8","8","0","0","0","1","0",,"31900","2017-10-16 16:47:39","23828"
"A2LT2201O6A4QS","caus_thomas_fire_v5","373ERPL3YO9WD2Q3EPQ6NJTO2B7RTN","8","8","0","0","0","1","0",,"16305","2017-10-16 16:47:55","23829"
"A2HBR503X52LVM","caus_thomas_fire_v5","3P1L2B7AD1Q5XCQIDO7B7XE2XB1OL8","8","8","0","0","1","0","0",,"27312","2017-10-16 16:47:57","23830"
"AZG3ZFBPSL91I","caus_thomas_fire_v5","3TOK3KHVJTJ6IR1G9U61OSW12RWO7Z","8","8","0","0","1","0","0",,"23806","2017-10-16 16:48:01","23831"
"A3T39UXTOMLX7E","caus_thomas_fire_v5","3GD6L00D3SY472127YAFVEGJ45I1M1","5","4","0","0","0","1","1",,"13237","2017-10-16 16:48:02","23832"
"A2M6TJIR21BN2W","caus_thomas_fire_v5","3AAJC4I4FGTB1QGPCC6F7G8EDQZJZ3","8","8","0","0","1","0","1",,"28148","2017-10-16 16:48:15","23833"
"A3JRQ26IIWI6JC","caus_thomas_fire_v5","3O7L7BFSHEQHVK5NY772A5SWC51EIG","4","4","0","0","0","1","1",,"19407","2017-10-16 16:48:17","23834"
"A35CJ52LOCFB36","caus_thomas_fire_v5","3PEIJLRY6TU82FG9IT19ZLMB7MAWXE","3","6","0","0","1","0","0",,"29068","2017-10-16 16:48:19","23835"
"AOB6ZJTDB416G","caus_thomas_fire_v5","3YT88D1N08Z5RHFE9QBI4U3CDK0K36","1","7","0","0","1","0","1",,"21489","2017-10-16 16:48:22","23836"
"A1APEQX73PO1HK","caus_thomas_fire_v5","3X73LLYYQ1FLTV7GLOS00GLQQKNNHL","6","8","0","0","1","0","1",,"32609","2017-10-16 16:48:34","23837"
"A3B9OZQTE4US3T","caus_thomas_fire_v5","3LKC68YZ3A4L862HH2EDG8VIVI5OW1","8","7","0","0","0","1","1",,"17078","2017-10-16 16:48:44","23838"
"A3SW1BXR31CZY0","caus_thomas_fire_v5","3R9WASFE2ZHVWOUTTMFUSIGMKJIZFG","4","4","0","0","0","1","0",,"35472","2017-10-16 16:48:47","23839"
"A2XMO68T3BJFFA","caus_thomas_fire_v5","3Z3ZLGNNSIVR2KD9MVVF0GFLCPGQ3Q","8","8","0","0","1","0","0",,"12468","2017-10-16 16:48:47","23840"
"A35ZVO654GOBP5","caus_thomas_fire_v5","3Q5ZZ9ZEVOGOAV0HEK28TMS5WGW58X","4","4","0","0","1","0","0",,"27945","2017-10-16 16:48:59","23841"
"A2AVWXK2DZHYCM","caus_thomas_fire_v5","32SCWG5HIH55ZRZC5KEO7E1VHL8P6I","4","4","0","0","0","1","1",,"19526","2017-10-16 16:49:08","23842"
"A25KAC1KSWKXVD","caus_thomas_fire_v5","33M4IA01QG23UJZNJZR3CMEUF7VRX6","8","4","0","0","0","1","1",,"24136","2017-10-16 16:49:08","23843"
"A3PB0RDXP4RSR8","caus_thomas_fire_v5","3C8HJ7UOP7V12YMAF9J7N80VHKUZMN","6","6","0","0","0","1","1",,"23234","2017-10-16 16:49:14","23844"
"A1NOR6E0WT0Y14","caus_thomas_fire_v5","3WR9XG3T63C2EYRYQARSAUQWLZL47S","2","5","0","0","1","0","1",,"6013","2017-10-16 16:49:18","23845"
"AVI7UDWV0Y3W3","caus_thomas_fire_v5","3YJ6NA41JBHHNMEJP38DGI603RSPJO","8","8","0","0","1","0","1",,"14488","2017-10-16 16:49:23","23846"
"A3MBPV2HD80G1E","caus_thomas_fire_v5","3WLEIWSYHOIP49INZ5UG8SISFPX2HA","6","6","0","0","0","1","0",,"32323","2017-10-16 16:49:27","23847"
" AOBTFLJU2BEPR
","caus_thomas_fire_v5","3NAPMVF0ZWGSBKCBMW84HFTY1M172D","7","4","0","0","0","1","1",,"12847","2017-10-16 16:49:32","23848"
"A2KC554M58IUFJ","caus_thomas_fire_v5","3L2IS5HSFAJQYHD0LNZZJVAGKSPNUM","4","4","0","0","1","0","1",,"39705","2017-10-16 16:49:33","23849"
"A26HEELX3JRTNF","caus_thomas_fire_v5","34QN5IT0TZSPFOEGHEWWCRWEF8N089","8","8","0","0","1","0","0",,"11937","2017-10-16 16:49:44","23850"
"A7CVRW3HLTUSH","caus_thomas_fire_v5","3B3WTRP3DB3WP3041T6OVBK4WCP29K","6","6","0","0","0","1","1",,"23605","2017-10-16 16:49:51","23851"
"A209H73TTW9F87","caus_thomas_fire_v5","3K9FOBBF2HKNFRQ6C97YS8EX70KLNC","7","3","0","0","0","1","0",,"54131","2017-10-16 16:49:55","23852"
"A3DJJFIYKJTYD9","caus_thomas_fire_v5","31LVTDXBL7B8UPIY5GOF1SJ78YLLRE","6","3","0","0","1","0","1",,"16531","2017-10-16 16:50:06","23853"
"A32S7DRKL0MW0A","caus_thomas_fire_v5","3NG53N1RLVKS35I0YZBMRSXMNGYP84","8","8","0","0","0","1","0",,"72164","2017-10-16 16:50:10","23854"
"A2N0RWR3JTVBM0
A2N0RWR3JTVBM0
A2N0RWR3JTVBM0
A2N0RWR3JTVBM0
A2N0RWR3JTVBM0","caus_thomas_fire_v5","3EKVH9QMEY58STDLD9BQH73UNX22DZ","8","8","0","0","1","0","1",,"32427","2017-10-16 16:50:11","23855"
"AAC7V5WYRYGVJ
","caus_thomas_fire_v5","3I0BTBYZAXM4UU5YUIUQB4KG8NPY0K","8","8","0","0","0","1","1",,"22813","2017-10-16 16:50:15","23856"
"A16KCYWNI9AA80
","caus_thomas_fire_v5","3SUWZRL0MYE120AMW6YDD22R3D1E6F","7","5","0","0","1","0","0",,"9982","2017-10-16 16:50:17","23857"
"A2G1JEROJ5ZM8U","caus_thomas_fire_v5","3SITXWYCNVAGECIYN25DC79QXLSXBZ","6","6","0","0","1","0","0",,"21139","2017-10-16 16:50:18","23858"
"A2M6TJIR21BN2W","caus_thomas_fire_v5","3AAJC4I4FGTB1QGPCC6F7G8EDQZJZ3","8","8","0","0","0","1","0",,"11038","2017-10-16 16:50:29","23859"
"AKQ15X3BG93GM","caus_thomas_fire_v5","3QY7M81QH7NNS0G1B2E8HBFSIMMK7B","8","8","0","0","1","0","1",,"28747","2017-10-16 16:50:31","23860"
"A15Y215D57OSO5","caus_thomas_fire_v5","3OLQQLKKNSQDQVPTGPS2M67WPKOJEV","5","5","0","0","1","0","0",,"22349","2017-10-16 16:50:48","23861"
"A1TGT6FVIZRNS5","caus_thomas_fire_v5","3PB5A5BD0V7IQEKILBTTJJNZB56G75","2","7","0","0","1","0","0",,"17325","2017-10-16 16:50:51","23862"
"A26PTRJD8EHGLQ","caus_thomas_fire_v5","3ON104KXQKXH4DSZYIZ42APDER64W8","1","1","0","0","1","0","1",,"23726","2017-10-16 16:50:53","23863"
"A2H8GNSEVUJXYL","caus_thomas_fire_v5","3VAR3R6G1P2AI56ZJZY72SSWDB38O7","8","8","0","0","1","0","1",,"14946","2017-10-16 16:50:58","23864"
"A3QGQT7TV8SMV9","caus_thomas_fire_v5","3JJVG1YBEBY7CTYOHWMIKOI64MJ5BY","7","7","0","0","1","0","1",,"34344","2017-10-16 16:51:12","23865"
"AQWO0GIP5LWR3","caus_thomas_fire_v5","3H7Z272LX78NIC2JSOKQWXJS7GXLPM","4","4","0","0","0","1","1",,"75647","2017-10-16 16:51:23","23866"
"A2TXJ662731SBZ","caus_thomas_fire_v5","3L2IS5HSFAJQYHD0LNZZJVAGKSQNUN","8","8","0","0","0","1","1",,"24469","2017-10-16 16:51:25","23867"
"A23QOYF0NI1WAY","caus_thomas_fire_v5","3E13VNJ1NNWIBJBBMJCN3L92NWYI12","5","5","0","0","0","1","0",,"28113","2017-10-16 16:51:29","23868"
"A2TDK0LD62WZ8Y","caus_thomas_fire_v5","3R5F3LQFV2LP217MSPYKFCP0CJYZOP","8","8","0","0","0","1","0",,"15682","2017-10-16 16:51:30","23869"
"A3JXDAMYHQGDXT","caus_thomas_fire_v5","3F0BG9B9MPOIC55IFHFZQJU3G1VY7K","8","8","0","0","0","1","1",,"27956","2017-10-16 16:51:30","23870"
"AYRUZ55QDUC58","caus_thomas_fire_v5","33M4IA01QG23UJZNJZR3CMEUF6JXRY","8","6","0","0","0","1","0",,"22753","2017-10-16 16:51:33","23871"
"A372GHF0HL9NRH","caus_thomas_fire_v5","3P1L2B7AD1Q5XCQIDO7B7XE2XB2LO6","8","8","0","0","1","0","0",,"21898","2017-10-16 16:51:36","23872"
"AI9QOT5C5DN1P","caus_thomas_fire_v5","3DIP6YHAPCTO6ETAPLVBXGYI98QE80","8","8","0","0","0","1","1",,"26880","2017-10-16 16:51:44","23873"
"A2W4Z6GVPNCO3C
","caus_thomas_fire_v5","33LKR6A5KEL8KXRMGVBRHSBBYDDT1T","8","8","0","0","1","0","0",,"23314","2017-10-16 16:51:47","23874"
"A11N2XYG9AGJ30","caus_thomas_fire_v5","38YMOXR4MU0VJ0WDH6SJZ89RAIC6WV","6","6","0","0","1","0","1",,"32015","2017-10-16 16:51:52","23875"
"A2MG1LLIKMGAMX","caus_thomas_fire_v5","3570Y55XZPK15YGJ8KJTWW7WF4AGY1","4","4","0","0","1","0","0",,"21073","2017-10-16 16:51:56","23876"
"A3PL4IJFVVRCPD","caus_thomas_fire_v5","33OOO72IVHMS701KWS0BYOU229UTC7","8","8","0","0","0","1","1",,"26819","2017-10-16 16:51:58","23877"
"ABO9F0JD9NN54","caus_thomas_fire_v5","3BDCF01OGXVHRQUKJBG99OC4BL1LYH","6","6","0","0","1","0","1",,"16961","2017-10-16 16:52:06","23878"
"A2QM9AG79I9GTE","caus_thomas_fire_v5","33NF62TLXJ3GCVH3CB35K1K19HNKJJ","8","8","0","0","0","1","0",,"30873","2017-10-16 16:52:12","23879"
"A29JFLUX9FM3OK","caus_thomas_fire_v5","3EJJQNKU9R668TZ8EV9H90Q0RHDRHE","4","5","0","0","0","1","1",,"8970","2017-10-16 16:52:20","23880"
"A3GAQNTZ1V1VO","caus_thomas_fire_v5","3Z9WI9EOZZPKLPMDOB0K8O4MWPJHKB","7","8","0","0","1","0","1",,"15393","2017-10-16 16:52:23","23881"
"A1L12OL1WQLFHH","caus_thomas_fire_v5","3XUHV3NRVKZH361AHOWE6ZL4ZZOH5Q","8","8","0","0","1","0","1",,"30237","2017-10-16 16:52:28","23882"
"A1E7H04DK5HXDL","caus_thomas_fire_v5","33TIN5LC04BMQOTBUEDJ4FL9BRIY9V","4","4","0","0","1","0","0",,"26418","2017-10-16 16:52:33","23883"
"A5T9IFDZ3W4T6","caus_thomas_fire_v5","3IXQG4FA2TZQDG00KMZZW4N8QI2B9V","7","5","0","0","0","1","0",,"24194","2017-10-16 16:52:33","23884"
"A2BQ9UA0LIKZQ3","caus_thomas_fire_v5","3PMBY0YE2749NLS6YMVU7OTQ8329C0","5","5","0","0","1","0","0",,"17245","2017-10-16 16:52:38","23885"
"A28HCBETFHUQFS","caus_thomas_fire_v5","3MD9PLUKKIF7KG7ARAY70NPVMA5NZC","8","8","0","0","0","1","1",,"34896","2017-10-16 16:52:38","23886"
"A18U9WMYFYJPR6","caus_thomas_fire_v5","3QECW5O0KH278FS5HID3KIOSATI5TN","7","8","0","0","1","0","0",,"16906","2017-10-16 16:52:49","23887"
"AEXF5EUX32U0M","caus_thomas_fire_v5","3QY7M81QH7NNS0G1B2E8HBFSIMKK79","7","3","0","0","0","1","0",,"37210","2017-10-16 16:52:51","23888"
"A2VA9GOGX6TB9U","caus_thomas_fire_v5","3IFS6Q0HJIKI53A5Z2R7ZMWBDWBISM","8","8","0","0","0","1","0",,"20276","2017-10-16 16:52:54","23889"
"A35T0SNF90U1W5","caus_thomas_fire_v5","37WLF8U1WPR4O02WSS9GBXFWNB2K6C","8","8","0","0","1","0","0",,"48943","2017-10-16 16:52:54","23890"
"A13P7QQDWVU76V","caus_thomas_fire_v5","32XVDSJFPZYBWNJYQ2AT0XQOWBWM23","8","3","0","0","1","0","0",,"18564","2017-10-16 16:52:57","23891"
"A3OE7882P03XR4","caus_thomas_fire_v5","3SPJ0334214BW06KGQ4WT9ZC7WVJYC","0","8","0","0","1","0","0",,"17965","2017-10-16 16:52:58","23892"
"A33FBG0T3WLLHY","caus_thomas_fire_v5","3DPNQGW4LLGJAYDT70M04GQ0QP9463","8","8","0","0","0","1","0",,"15403","2017-10-16 16:53:06","23893"
"A26MRON9XGPVB5","caus_thomas_fire_v5","3UJ1CZ6IZHQ6TFFQSI8DADS68A2S5J","7","7","0","0","0","1","1",,"20047","2017-10-16 16:53:10","23894"
"A2S5CMTSN42YWM","caus_thomas_fire_v5","3OWEPKL089DO06148F6O93WWCHQN7I","8","8","0","0","1","0","1",,"32855","2017-10-16 16:53:12","23895"
"AMNMG3DCCC166","caus_thomas_fire_v5","39LNWE0K4UXYKG29O7M7ENEZYSKUI0","8","8","0","0","0","1","0",,"93996","2017-10-16 16:53:13","23896"
"A2KJTAUK0XHANK","caus_thomas_fire_v5","3YWRV122CS05VAQWFLAG1YKLVXRU86","8","8","0","0","1","0","0",,"22995","2017-10-16 16:53:17","23897"
"A2G9IEVL1RA14V","caus_thomas_fire_v5","39L1G8WVWQS3LGTS1G50ZF7D4E131N","8","8","0","0","1","0","0",,"30667","2017-10-16 16:53:19","23898"
"A2IRFAXQI96P3","caus_thomas_fire_v5","32Z9ZLUT1LL3BG7SM3SDF5LVGUTHOV","6","6","0","0","1","0","1",,"66821","2017-10-16 16:53:57","23899"
"A3IJ23GWQ4HBSW","caus_thomas_fire_v5","3L70J4KAZGNXXW8PQO45NPMSZLXADH","6","6","0","0","1","0","1",,"16142","2017-10-16 16:54:01","23900"
"A2Z6EQWA4XJQGI","caus_thomas_fire_v5","3QAPZX2QN4EET9CR1XNV20JBT8W209","2","4","0","0","1","0","1",,"10088","2017-10-16 16:54:04","23901"
"A3TQKAOIJSPPRB","caus_thomas_fire_v5","3RKNTXVS3MZKX0PWXD3CKLSMM84A44","7","6","0","0","0","1","0",,"21086","2017-10-16 16:54:04","23902"
"A1CWDCM0WHXQXZ","caus_thomas_fire_v5","3WJEQKOXA83351SDAVKAMNLJAOU1AI","7","7","0","0","0","1","0",,"28723","2017-10-16 16:54:08","23903"
"A30MP4LXV4MIFD","caus_thomas_fire_v5","3GGAI1SQEVZOU5B0NVZZCAZA829MCC","5","4","0","0","1","0","0",,"10961","2017-10-16 16:54:12","23904"
"A3POL9ULTRW8PV","caus_thomas_fire_v5","3R8YZBNQ9HJ933EWO7Y5DXR1HSFQ7A","8","8","0","0","0","1","1",,"21252","2017-10-16 16:54:15","23905"
"A132HYJJXZSOM9","caus_thomas_fire_v5","3PM8NZGV8YH3IIKN6K237W4PJLUQX5","6","6","0","0","0","1","0",,"30879","2017-10-16 16:54:23","23906"
"A1NIJ3I7N9UFQZ
","caus_thomas_fire_v5","3MTMREQS4VJW628G7J9VFDBD612AWP","8","8","0","0","1","0","1",,"34341","2017-10-16 16:54:27","23907"
"A19F75QCU199K8","caus_thomas_fire_v5","3E4GGUZ1T8SG6ZJV5QXDLKYK761K2W","5","5","0","0","0","1","1",,"15987","2017-10-16 16:54:31","23908"
"A12MSYRHI3XWDT","caus_thomas_fire_v5","35L9RVQFCOJYOLRPIP4MEBDKYGIHU9","6","7","0","0","1","0","1",,"14292","2017-10-16 16:54:32","23909"
