"subject","version","assignmentId","trial_ind","ex_ind","question_ind","response","correct","cond","rt","stamp","id"
"A21KXWKFWGBCZ3","caus_thomas_fire_v5","3M23Y66PO282CJF4X1II2J66443S6N","0","7","0","Yes","1","0","5226","2017-10-16 16:07:28","4183"
"A21KXWKFWGBCZ3","caus_thomas_fire_v5","3M23Y66PO282CJF4X1II2J66443S6N","1","8","0","Yes","1","0","6102","2017-10-16 16:07:35","4184"
"A21KXWKFWGBCZ3","caus_thomas_fire_v5","3M23Y66PO282CJF4X1II2J66443S6N","2","2","0","No","1","0","4443","2017-10-16 16:07:40","4185"
"A21KXWKFWGBCZ3","caus_thomas_fire_v5","3M23Y66PO282CJF4X1II2J66443S6N","3","9","0","Yes","1","0","3256","2017-10-16 16:07:45","4186"
"A21KXWKFWGBCZ3","caus_thomas_fire_v5","3M23Y66PO282CJF4X1II2J66443S6N","4","3","0","Yes","1","0","4345","2017-10-16 16:07:50","4187"
"A1ZDR2UN7M92LI
","caus_thomas_fire_v5","39GAF6DQWR1NXPVBLQB6IAZWVXHV1X","0","2","0","No","1","1","4763","2017-10-16 16:07:52","4188"
"A21KXWKFWGBCZ3","caus_thomas_fire_v5","3M23Y66PO282CJF4X1II2J66443S6N","5","0","0","Yes","1","0","2047","2017-10-16 16:07:53","4189"
"A1ZDR2UN7M92LI
","caus_thomas_fire_v5","39GAF6DQWR1NXPVBLQB6IAZWVXHV1X","1","5","0","No","1","1","2471","2017-10-16 16:07:55","4190"
"A21KXWKFWGBCZ3","caus_thomas_fire_v5","3M23Y66PO282CJF4X1II2J66443S6N","6","4","0","Yes","1","0","1730","2017-10-16 16:07:56","4191"
"A1ZDR2UN7M92LI
","caus_thomas_fire_v5","39GAF6DQWR1NXPVBLQB6IAZWVXHV1X","2","7","0","No","1","1","1615","2017-10-16 16:07:58","4192"
"A21KXWKFWGBCZ3","caus_thomas_fire_v5","3M23Y66PO282CJF4X1II2J66443S6N","7","6","0","Yes","1","0","1811","2017-10-16 16:07:59","4193"
"A1ZDR2UN7M92LI
","caus_thomas_fire_v5","39GAF6DQWR1NXPVBLQB6IAZWVXHV1X","3","9","0","No","1","1","1611","2017-10-16 16:08:00","4194"
"A21KXWKFWGBCZ3","caus_thomas_fire_v5","3M23Y66PO282CJF4X1II2J66443S6N","8","5","0","Yes","1","0","1800","2017-10-16 16:08:01","4195"
"A38ECJNH8AQKV4
","caus_thomas_fire_v5","3PQMUDRV7R7TBP79UQXTVKQO4XWIIF","0","5","0","No","1","0","8180","2017-10-16 16:08:02","4196"
"A1ZDR2UN7M92LI
","caus_thomas_fire_v5","39GAF6DQWR1NXPVBLQB6IAZWVXHV1X","4","8","0","No","1","1","1776","2017-10-16 16:08:03","4197"
"A21KXWKFWGBCZ3","caus_thomas_fire_v5","3M23Y66PO282CJF4X1II2J66443S6N","9","1","0","Yes","1","0","1979","2017-10-16 16:08:04","4198"
"A1P458P1C6JOXP","caus_thomas_fire_v5","3PB5A5BD0V7IQEKILBTTJJNZB4TG7Q","0","0","0","Yes","1","1","7563","2017-10-16 16:08:05","4199"
"A1ZDR2UN7M92LI
","caus_thomas_fire_v5","39GAF6DQWR1NXPVBLQB6IAZWVXHV1X","5","4","0","No","1","1","1312","2017-10-16 16:08:05","4200"
"A3K43RI91Y567E","caus_thomas_fire_v5","3FE7TXL1LIO2H2HQIVHAH6AT6BGQ2F","0","8","0","Yes","1","1","4880","2017-10-16 16:08:07","4201"
"A1ZDR2UN7M92LI
","caus_thomas_fire_v5","39GAF6DQWR1NXPVBLQB6IAZWVXHV1X","6","6","0","No","1","1","1361","2017-10-16 16:08:08","4202"
"A17J1CE7N49Z9D","caus_thomas_fire_v5","3K9FOBBF2HKNFRQ6C97YS8EX70KNLE","0","8","0","No","1","1","6736","2017-10-16 16:08:08","4203"
"A38ECJNH8AQKV4
","caus_thomas_fire_v5","3PQMUDRV7R7TBP79UQXTVKQO4XWIIF","1","9","0","No","1","0","5646","2017-10-16 16:08:09","4204"
"A1BEBN58T1E0TH","caus_thomas_fire_v5","3ZDAD0O1T1EGAYCFNOWYC1FC3RGXTB","0","4","0","No","1","1","4437","2017-10-16 16:08:12","4205"
"A1P458P1C6JOXP","caus_thomas_fire_v5","3PB5A5BD0V7IQEKILBTTJJNZB4TG7Q","1","8","0","Yes","1","1","6627","2017-10-16 16:08:12","4206"
"A17J1CE7N49Z9D","caus_thomas_fire_v5","3K9FOBBF2HKNFRQ6C97YS8EX70KNLE","1","4","0","Yes","0","1","3026","2017-10-16 16:08:12","4207"
"A3K43RI91Y567E","caus_thomas_fire_v5","3FE7TXL1LIO2H2HQIVHAH6AT6BGQ2F","1","7","0","Yes","1","1","4485","2017-10-16 16:08:13","4208"
"A1ZDR2UN7M92LI
","caus_thomas_fire_v5","39GAF6DQWR1NXPVBLQB6IAZWVXHV1X","7","1","0","No","0","1","4004","2017-10-16 16:08:13","4209"
"A38ECJNH8AQKV4
","caus_thomas_fire_v5","3PQMUDRV7R7TBP79UQXTVKQO4XWIIF","2","4","0","No","1","0","5337","2017-10-16 16:08:15","4210"
"A1BQCRF5Q76YFY
","caus_thomas_fire_v5","3PM8NZGV8YH3IIKN6K237W4PJKHXQX","0","5","0","Yes","1","0","5130","2017-10-16 16:08:15","4211"
"A1BEBN58T1E0TH","caus_thomas_fire_v5","3ZDAD0O1T1EGAYCFNOWYC1FC3RGXTB","1","9","0","No","1","1","2757","2017-10-16 16:08:15","4212"
"ADAGUJNWMEPT6","caus_thomas_fire_v5","339ANSOTR53KHKXXUTI58051W1LIKQ","0","7","0","Yes","1","1","7010","2017-10-16 16:08:15","4213"
"A1ZDR2UN7M92LI
","caus_thomas_fire_v5","39GAF6DQWR1NXPVBLQB6IAZWVXHV1X","8","3","0","Yes","1","1","3412","2017-10-16 16:08:17","4214"
"A3K43RI91Y567E","caus_thomas_fire_v5","3FE7TXL1LIO2H2HQIVHAH6AT6BGQ2F","2","3","0","Yes","1","1","3800","2017-10-16 16:08:18","4215"
"A1P458P1C6JOXP","caus_thomas_fire_v5","3PB5A5BD0V7IQEKILBTTJJNZB4TG7Q","2","1","0","Yes","1","1","4644","2017-10-16 16:08:18","4216"
"A1BQCRF5Q76YFY
","caus_thomas_fire_v5","3PM8NZGV8YH3IIKN6K237W4PJKHXQX","1","0","0","Yes","1","0","2494","2017-10-16 16:08:19","4217"
"A17J1CE7N49Z9D","caus_thomas_fire_v5","3K9FOBBF2HKNFRQ6C97YS8EX70KNLE","2","3","0","Yes","1","1","6319","2017-10-16 16:08:20","4218"
"A1ZDR2UN7M92LI
","caus_thomas_fire_v5","39GAF6DQWR1NXPVBLQB6IAZWVXHV1X","9","0","0","Yes","1","1","1543","2017-10-16 16:08:20","4219"
"A38ECJNH8AQKV4
","caus_thomas_fire_v5","3PQMUDRV7R7TBP79UQXTVKQO4XWIIF","3","3","0","Yes","1","0","4472","2017-10-16 16:08:20","4220"
"A1BEBN58T1E0TH","caus_thomas_fire_v5","3ZDAD0O1T1EGAYCFNOWYC1FC3RGXTB","2","1","0","Yes","1","1","4010","2017-10-16 16:08:21","4221"
"A191F96P1GIVKX","caus_thomas_fire_v5","34T446B1C0FRRR4TYQC1EDSX5YW0C1","0","4","0","No","1","0","8981","2017-10-16 16:08:21","4222"
"ADAGUJNWMEPT6","caus_thomas_fire_v5","339ANSOTR53KHKXXUTI58051W1LIKQ","1","3","0","Yes","1","1","4467","2017-10-16 16:08:21","4223"
"A23JA6ICO4BPQ5","caus_thomas_fire_v5","3483FV8BEEK97KY63M3CB1T26A562Z","0","0","0","Yes","1","0","3550","2017-10-16 16:08:21","4224"
"A1P458P1C6JOXP","caus_thomas_fire_v5","3PB5A5BD0V7IQEKILBTTJJNZB4TG7Q","3","7","0","Yes","1","1","2609","2017-10-16 16:08:22","4225"
"A3K43RI91Y567E","caus_thomas_fire_v5","3FE7TXL1LIO2H2HQIVHAH6AT6BGQ2F","3","2","0","No","1","1","3555","2017-10-16 16:08:22","4226"
"A1BQCRF5Q76YFY
","caus_thomas_fire_v5","3PM8NZGV8YH3IIKN6K237W4PJKHXQX","2","4","0","Yes","1","0","2038","2017-10-16 16:08:22","4227"
"A17J1CE7N49Z9D","caus_thomas_fire_v5","3K9FOBBF2HKNFRQ6C97YS8EX70KNLE","3","7","0","No","1","1","3147","2017-10-16 16:08:24","4228"
"A3GHK21QETWLZJ","caus_thomas_fire_v5","3LOZAJ85YDEMQZI249C2BE6M3E42XP","0","7","0","No","1","0","9260","2017-10-16 16:08:24","4229"
"AB5976B6VKZYC","caus_thomas_fire_v5","32UTUBMZ7GXOAND3NN4VOMC5H98VBG","0","3","0","Yes","1","0","8205","2017-10-16 16:08:24","4230"
"A1BEBN58T1E0TH","caus_thomas_fire_v5","3ZDAD0O1T1EGAYCFNOWYC1FC3RGXTB","3","2","0","No","1","1","2749","2017-10-16 16:08:24","4231"
"A23JA6ICO4BPQ5","caus_thomas_fire_v5","3483FV8BEEK97KY63M3CB1T26A562Z","1","5","0","No","1","0","2407","2017-10-16 16:08:25","4232"
"A1RXG8RE0SJ4LC","caus_thomas_fire_v5","3A0EX8ZRN8P5EH88SYRFVLGZZQAYBS","0","0","0","Yes","1","1","4239","2017-10-16 16:08:25","4233"
"A1BQCRF5Q76YFY
","caus_thomas_fire_v5","3PM8NZGV8YH3IIKN6K237W4PJKHXQX","3","3","0","Yes","1","0","2729","2017-10-16 16:08:25","4234"
"ADAGUJNWMEPT6","caus_thomas_fire_v5","339ANSOTR53KHKXXUTI58051W1LIKQ","2","1","0","Yes","1","1","3561","2017-10-16 16:08:26","4235"
"A191F96P1GIVKX","caus_thomas_fire_v5","34T446B1C0FRRR4TYQC1EDSX5YW0C1","1","3","0","Yes","1","0","4862","2017-10-16 16:08:27","4236"
"A1P458P1C6JOXP","caus_thomas_fire_v5","3PB5A5BD0V7IQEKILBTTJJNZB4TG7Q","4","2","0","No","1","1","4347","2017-10-16 16:08:27","4237"
"A3K43RI91Y567E","caus_thomas_fire_v5","3FE7TXL1LIO2H2HQIVHAH6AT6BGQ2F","4","4","0","Yes","1","1","3828","2017-10-16 16:08:27","4238"
"A38ECJNH8AQKV4
","caus_thomas_fire_v5","3PQMUDRV7R7TBP79UQXTVKQO4XWIIF","4","6","0","No","1","0","5807","2017-10-16 16:08:27","4239"
"A1BEBN58T1E0TH","caus_thomas_fire_v5","3ZDAD0O1T1EGAYCFNOWYC1FC3RGXTB","4","6","0","No","1","1","2427","2017-10-16 16:08:28","4240"
"A23JA6ICO4BPQ5","caus_thomas_fire_v5","3483FV8BEEK97KY63M3CB1T26A562Z","2","4","0","No","1","0","2723","2017-10-16 16:08:28","4241"
"A1CM612SSQU5L","caus_thomas_fire_v5","33NF62TLXJ3GCVH3CB35K1K19GAKJ4","0","1","0","Yes","1","0","7940","2017-10-16 16:08:29","4242"
"A1BQCRF5Q76YFY
","caus_thomas_fire_v5","3PM8NZGV8YH3IIKN6K237W4PJKHXQX","4","2","0","No","1","0","2418","2017-10-16 16:08:29","4243"
"A17J1CE7N49Z9D","caus_thomas_fire_v5","3K9FOBBF2HKNFRQ6C97YS8EX70KNLE","4","9","0","No","1","1","4213","2017-10-16 16:08:29","4244"
"A3GHK21QETWLZJ","caus_thomas_fire_v5","3LOZAJ85YDEMQZI249C2BE6M3E42XP","1","2","0","No","1","0","4019","2017-10-16 16:08:29","4245"
"A2R0Y8A3SSZ30S","caus_thomas_fire_v5","3R08VXYT7CWEN0AI0GXB5M9N5SJW75","0","5","0","No","1","1","3618","2017-10-16 16:08:30","4246"
"ADAGUJNWMEPT6","caus_thomas_fire_v5","339ANSOTR53KHKXXUTI58051W1LIKQ","3","0","0","Yes","1","1","3359","2017-10-16 16:08:30","4247"
"A1P458P1C6JOXP","caus_thomas_fire_v5","3PB5A5BD0V7IQEKILBTTJJNZB4TG7Q","5","9","0","Yes","1","1","2985","2017-10-16 16:08:31","4248"
"AB5976B6VKZYC","caus_thomas_fire_v5","32UTUBMZ7GXOAND3NN4VOMC5H98VBG","1","1","0","Yes","1","0","5769","2017-10-16 16:08:31","4249"
"AKPXWXJFLHM08","caus_thomas_fire_v5","39L1G8WVWQS3LGTS1G50ZF7D4DP137","0","3","0","No","0","0","12959","2017-10-16 16:08:31","4250"
"A1RXG8RE0SJ4LC","caus_thomas_fire_v5","3A0EX8ZRN8P5EH88SYRFVLGZZQAYBS","1","3","0","Yes","1","1","5055","2017-10-16 16:08:32","4251"
"A1BEBN58T1E0TH","caus_thomas_fire_v5","3ZDAD0O1T1EGAYCFNOWYC1FC3RGXTB","5","3","0","Yes","1","1","3081","2017-10-16 16:08:32","4252"
"A3K43RI91Y567E","caus_thomas_fire_v5","3FE7TXL1LIO2H2HQIVHAH6AT6BGQ2F","5","1","0","Yes","1","1","3890","2017-10-16 16:08:32","4253"
"A23JA6ICO4BPQ5","caus_thomas_fire_v5","3483FV8BEEK97KY63M3CB1T26A562Z","3","9","0","No","1","0","2561","2017-10-16 16:08:32","4254"
"A6B8DOH3KV5SL","caus_thomas_fire_v5","3QBD8R3Z21K9Z4JX7W8ULGCRBOUO41","0","0","0","Yes","1","1","8493","2017-10-16 16:08:32","4255"
"A1BQCRF5Q76YFY
","caus_thomas_fire_v5","3PM8NZGV8YH3IIKN6K237W4PJKHXQX","5","9","0","Yes","1","0","2002","2017-10-16 16:08:32","4256"
"A191F96P1GIVKX","caus_thomas_fire_v5","34T446B1C0FRRR4TYQC1EDSX5YW0C1","2","6","0","No","1","0","4719","2017-10-16 16:08:32","4257"
"A239EUWY6SNDEZ","caus_thomas_fire_v5","3HUTX6F6VUOZWQ4A3IP6S1FTRAZ2OK","0","4","0","No","1","1","5072","2017-10-16 16:08:34","4258"
"A1CM612SSQU5L","caus_thomas_fire_v5","33NF62TLXJ3GCVH3CB35K1K19GAKJ4","1","8","0","No","1","0","4435","2017-10-16 16:08:34","4259"
"AKPXWXJFLHM08","caus_thomas_fire_v5","39L1G8WVWQS3LGTS1G50ZF7D4DP137","1","7","0","No","0","0","2281","2017-10-16 16:08:34","4260"
"A3GHK21QETWLZJ","caus_thomas_fire_v5","3LOZAJ85YDEMQZI249C2BE6M3E42XP","2","4","0","No","1","0","4147","2017-10-16 16:08:34","4261"
"A1BQCRF5Q76YFY
","caus_thomas_fire_v5","3PM8NZGV8YH3IIKN6K237W4PJKHXQX","6","7","0","Yes","1","0","1562","2017-10-16 16:08:34","4262"
"A1P458P1C6JOXP","caus_thomas_fire_v5","3PB5A5BD0V7IQEKILBTTJJNZB4TG7Q","6","6","0","Yes","1","1","2588","2017-10-16 16:08:35","4263"
"A17J1CE7N49Z9D","caus_thomas_fire_v5","3K9FOBBF2HKNFRQ6C97YS8EX70KNLE","5","0","0","No","0","1","4666","2017-10-16 16:08:35","4264"
"AH31QLJ57XC8W","caus_thomas_fire_v5","39PAAFCODM1O697KN9VGOGIRNG8VT6","0","9","0","Yes","1","0","2332","2017-10-16 16:08:35","4265"
"A1RXG8RE0SJ4LC","caus_thomas_fire_v5","3A0EX8ZRN8P5EH88SYRFVLGZZQAYBS","2","4","0","Yes","1","1","2467","2017-10-16 16:08:35","4266"
"ADAGUJNWMEPT6","caus_thomas_fire_v5","339ANSOTR53KHKXXUTI58051W1LIKQ","4","5","0","Yes","1","1","4085","2017-10-16 16:08:35","4267"
"A38ECJNH8AQKV4
","caus_thomas_fire_v5","3PQMUDRV7R7TBP79UQXTVKQO4XWIIF","5","0","0","Yes","1","0","6947","2017-10-16 16:08:35","4268"
"A23JA6ICO4BPQ5","caus_thomas_fire_v5","3483FV8BEEK97KY63M3CB1T26A562Z","4","1","0","Yes","1","0","2643","2017-10-16 16:08:36","4269"
"A2R0Y8A3SSZ30S","caus_thomas_fire_v5","3R08VXYT7CWEN0AI0GXB5M9N5SJW75","1","4","0","No","1","1","5227","2017-10-16 16:08:36","4270"
"A1BEBN58T1E0TH","caus_thomas_fire_v5","3ZDAD0O1T1EGAYCFNOWYC1FC3RGXTB","6","0","0","Yes","1","1","3672","2017-10-16 16:08:36","4271"
"AB5976B6VKZYC","caus_thomas_fire_v5","32UTUBMZ7GXOAND3NN4VOMC5H98VBG","2","2","0","No","1","0","5112","2017-10-16 16:08:37","4272"
"A3K43RI91Y567E","caus_thomas_fire_v5","3FE7TXL1LIO2H2HQIVHAH6AT6BGQ2F","6","0","0","Yes","1","1","4454","2017-10-16 16:08:37","4273"
"A1BQCRF5Q76YFY
","caus_thomas_fire_v5","3PM8NZGV8YH3IIKN6K237W4PJKHXQX","7","6","0","Yes","1","0","2092","2017-10-16 16:08:38","4274"
"A6B8DOH3KV5SL","caus_thomas_fire_v5","3QBD8R3Z21K9Z4JX7W8ULGCRBOUO41","1","6","0","No","1","1","4856","2017-10-16 16:08:38","4275"
"AS3YLN1NMQ3T9","caus_thomas_fire_v5","3VNXK88KKCJ5MUY6P3QZXGHFT95V96","0","4","0","No","1","0","5289","2017-10-16 16:08:38","4276"
"ADAGUJNWMEPT6","caus_thomas_fire_v5","339ANSOTR53KHKXXUTI58051W1LIKQ","5","9","0","Yes","1","1","2306","2017-10-16 16:08:38","4277"
"A1RXG8RE0SJ4LC","caus_thomas_fire_v5","3A0EX8ZRN8P5EH88SYRFVLGZZQAYBS","3","5","0","Yes","1","1","2352","2017-10-16 16:08:38","4278"
"A23JA6ICO4BPQ5","caus_thomas_fire_v5","3483FV8BEEK97KY63M3CB1T26A562Z","5","7","0","No","1","0","2065","2017-10-16 16:08:39","4279"
"A3GHK21QETWLZJ","caus_thomas_fire_v5","3LOZAJ85YDEMQZI249C2BE6M3E42XP","3","3","0","Yes","1","0","3259","2017-10-16 16:08:39","4280"
"A17J1CE7N49Z9D","caus_thomas_fire_v5","3K9FOBBF2HKNFRQ6C97YS8EX70KNLE","6","6","0","No","1","1","3177","2017-10-16 16:08:39","4281"
"AKPXWXJFLHM08","caus_thomas_fire_v5","39L1G8WVWQS3LGTS1G50ZF7D4DP137","2","8","0","Yes","1","0","3991","2017-10-16 16:08:39","4282"
"A1BEBN58T1E0TH","caus_thomas_fire_v5","3ZDAD0O1T1EGAYCFNOWYC1FC3RGXTB","7","5","0","No","1","1","1973","2017-10-16 16:08:39","4283"
"A239EUWY6SNDEZ","caus_thomas_fire_v5","3HUTX6F6VUOZWQ4A3IP6S1FTRAZ2OK","1","2","0","No","1","1","4454","2017-10-16 16:08:39","4284"
"A191F96P1GIVKX","caus_thomas_fire_v5","34T446B1C0FRRR4TYQC1EDSX5YW0C1","3","1","0","Yes","1","0","6363","2017-10-16 16:08:40","4285"
"A1CM612SSQU5L","caus_thomas_fire_v5","33NF62TLXJ3GCVH3CB35K1K19GAKJ4","2","7","0","No","1","0","4918","2017-10-16 16:08:40","4286"
"A241PV6A122I5X","caus_thomas_fire_v5","3VBEN272MK049C4A9ER4EAJVYI6SGP","0","9","0","No","1","1","4520","2017-10-16 16:08:40","4287"
"A1BQCRF5Q76YFY
","caus_thomas_fire_v5","3PM8NZGV8YH3IIKN6K237W4PJKHXQX","8","8","0","Yes","1","0","1929","2017-10-16 16:08:40","4288"
"A3K43RI91Y567E","caus_thomas_fire_v5","3FE7TXL1LIO2H2HQIVHAH6AT6BGQ2F","7","5","0","Yes","1","1","2264","2017-10-16 16:08:41","4289"
"A2R0Y8A3SSZ30S","caus_thomas_fire_v5","3R08VXYT7CWEN0AI0GXB5M9N5SJW75","2","9","0","No","1","1","4197","2017-10-16 16:08:41","4290"
"A1P458P1C6JOXP","caus_thomas_fire_v5","3PB5A5BD0V7IQEKILBTTJJNZB4TG7Q","7","3","0","Yes","1","1","5649","2017-10-16 16:08:41","4291"
"AH31QLJ57XC8W","caus_thomas_fire_v5","39PAAFCODM1O697KN9VGOGIRNG8VT6","1","8","0","Yes","1","0","5491","2017-10-16 16:08:41","4292"
"A3IR7DFEKLLLO","caus_thomas_fire_v5","386PBUZZXFYRW1ZLXBF6Z1XGYGFLJ8","0","9","0","Yes","1","0","4642","2017-10-16 16:08:41","4293"
"A1RXG8RE0SJ4LC","caus_thomas_fire_v5","3A0EX8ZRN8P5EH88SYRFVLGZZQAYBS","4","2","0","No","1","1","2210","2017-10-16 16:08:42","4294"
"A3TK7HVFEKB00R","caus_thomas_fire_v5","33C7UALJVLZPMDZYDX0WQWFOKZH816","0","3","0","Yes","1","1","5476","2017-10-16 16:08:42","4295"
"AB5976B6VKZYC","caus_thomas_fire_v5","32UTUBMZ7GXOAND3NN4VOMC5H98VBG","3","6","0","Yes","1","0","3900","2017-10-16 16:08:42","4296"
"AGON2ML5JT2OI","caus_thomas_fire_v5","3Y5140Z9DXHLSBUD7LND4HR0QBRIPR","0","2","0","No","1","0","5249","2017-10-16 16:08:42","4297"
"ADAGUJNWMEPT6","caus_thomas_fire_v5","339ANSOTR53KHKXXUTI58051W1LIKQ","6","6","0","Yes","1","1","3318","2017-10-16 16:08:43","4298"
"A1BEBN58T1E0TH","caus_thomas_fire_v5","3ZDAD0O1T1EGAYCFNOWYC1FC3RGXTB","8","8","0","No","1","1","2352","2017-10-16 16:08:43","4299"
"AKPXWXJFLHM08","caus_thomas_fire_v5","39L1G8WVWQS3LGTS1G50ZF7D4DP137","3","5","0","Yes","1","0","2258","2017-10-16 16:08:43","4300"
"A23JA6ICO4BPQ5","caus_thomas_fire_v5","3483FV8BEEK97KY63M3CB1T26A562Z","6","6","0","No","1","0","3490","2017-10-16 16:08:43","4301"
"A1BQCRF5Q76YFY
","caus_thomas_fire_v5","3PM8NZGV8YH3IIKN6K237W4PJKHXQX","9","1","0","Yes","1","0","1597","2017-10-16 16:08:43","4302"
"A6B8DOH3KV5SL","caus_thomas_fire_v5","3QBD8R3Z21K9Z4JX7W8ULGCRBOUO41","2","4","0","No","1","1","4480","2017-10-16 16:08:43","4303"
"A38ECJNH8AQKV4
","caus_thomas_fire_v5","3PQMUDRV7R7TBP79UQXTVKQO4XWIIF","6","8","0","No","1","0","7293","2017-10-16 16:08:43","4304"
"A3K43RI91Y567E","caus_thomas_fire_v5","3FE7TXL1LIO2H2HQIVHAH6AT6BGQ2F","8","6","0","Yes","1","1","2235","2017-10-16 16:08:44","4305"
"A3JGW4RGO86NPX","caus_thomas_fire_v5","32AT8R96GLANEU55TJGLIPKM7QLSUP","0","7","0","No","1","1","5755","2017-10-16 16:08:44","4306"
"A1RXG8RE0SJ4LC","caus_thomas_fire_v5","3A0EX8ZRN8P5EH88SYRFVLGZZQAYBS","5","9","0","Yes","1","1","1938","2017-10-16 16:08:44","4307"
"A191F96P1GIVKX","caus_thomas_fire_v5","34T446B1C0FRRR4TYQC1EDSX5YW0C1","4","5","0","No","1","0","3690","2017-10-16 16:08:45","4308"
"A241PV6A122I5X","caus_thomas_fire_v5","3VBEN272MK049C4A9ER4EAJVYI6SGP","1","1","0","Yes","1","1","3682","2017-10-16 16:08:45","4309"
"A239EUWY6SNDEZ","caus_thomas_fire_v5","3HUTX6F6VUOZWQ4A3IP6S1FTRAZ2OK","2","0","0","Yes","1","1","4512","2017-10-16 16:08:45","4310"
"AS3YLN1NMQ3T9","caus_thomas_fire_v5","3VNXK88KKCJ5MUY6P3QZXGHFT95V96","1","7","0","No","1","0","5657","2017-10-16 16:08:45","4311"
"A1P458P1C6JOXP","caus_thomas_fire_v5","3PB5A5BD0V7IQEKILBTTJJNZB4TG7Q","8","5","0","Yes","1","1","2889","2017-10-16 16:08:45","4312"
"A3IR7DFEKLLLO","caus_thomas_fire_v5","386PBUZZXFYRW1ZLXBF6Z1XGYGFLJ8","1","7","0","Yes","1","0","2997","2017-10-16 16:08:45","4313"
"A1WPXQWFALCA65","caus_thomas_fire_v5","3MAOD8E57QBIFL7VQSAM329KE9UNX0","0","5","0","No","1","0","7668","2017-10-16 16:08:46","4314"
"A1BEBN58T1E0TH","caus_thomas_fire_v5","3ZDAD0O1T1EGAYCFNOWYC1FC3RGXTB","9","7","0","No","1","1","1975","2017-10-16 16:08:46","4315"
"AKPXWXJFLHM08","caus_thomas_fire_v5","39L1G8WVWQS3LGTS1G50ZF7D4DP137","4","4","0","No","0","0","2505","2017-10-16 16:08:46","4316"
"A17J1CE7N49Z9D","caus_thomas_fire_v5","3K9FOBBF2HKNFRQ6C97YS8EX70KNLE","7","5","0","No","1","1","6502","2017-10-16 16:08:46","4317"
"A23JA6ICO4BPQ5","caus_thomas_fire_v5","3483FV8BEEK97KY63M3CB1T26A562Z","7","2","0","No","1","0","2242","2017-10-16 16:08:46","4318"
"AB5976B6VKZYC","caus_thomas_fire_v5","32UTUBMZ7GXOAND3NN4VOMC5H98VBG","4","9","0","Yes","1","0","3391","2017-10-16 16:08:46","4319"
"A3TK7HVFEKB00R","caus_thomas_fire_v5","33C7UALJVLZPMDZYDX0WQWFOKZH816","1","6","0","No","0","1","3787","2017-10-16 16:08:46","4320"
"A1CM612SSQU5L","caus_thomas_fire_v5","33NF62TLXJ3GCVH3CB35K1K19GAKJ4","3","9","0","No","1","0","5357","2017-10-16 16:08:47","4321"
"A3GHK21QETWLZJ","caus_thomas_fire_v5","3LOZAJ85YDEMQZI249C2BE6M3E42XP","4","6","0","No","1","0","6921","2017-10-16 16:08:47","4322"
"A1RXG8RE0SJ4LC","caus_thomas_fire_v5","3A0EX8ZRN8P5EH88SYRFVLGZZQAYBS","6","7","0","Yes","1","1","1250","2017-10-16 16:08:47","4323"
"ADAGUJNWMEPT6","caus_thomas_fire_v5","339ANSOTR53KHKXXUTI58051W1LIKQ","7","8","0","Yes","1","1","3391","2017-10-16 16:08:47","4324"
"A3K43RI91Y567E","caus_thomas_fire_v5","3FE7TXL1LIO2H2HQIVHAH6AT6BGQ2F","9","9","0","Yes","1","1","2381","2017-10-16 16:08:47","4325"
"A6B8DOH3KV5SL","caus_thomas_fire_v5","3QBD8R3Z21K9Z4JX7W8ULGCRBOUO41","3","3","0","Yes","1","1","3697","2017-10-16 16:08:48","4326"
"AGON2ML5JT2OI","caus_thomas_fire_v5","3Y5140Z9DXHLSBUD7LND4HR0QBRIPR","1","0","0","Yes","1","0","4976","2017-10-16 16:08:48","4327"
"AH31QLJ57XC8W","caus_thomas_fire_v5","39PAAFCODM1O697KN9VGOGIRNG8VT6","2","5","0","No","0","0","5977","2017-10-16 16:08:48","4328"
"A191F96P1GIVKX","caus_thomas_fire_v5","34T446B1C0FRRR4TYQC1EDSX5YW0C1","5","9","0","No","1","0","2858","2017-10-16 16:08:48","4329"
"A1P458P1C6JOXP","caus_thomas_fire_v5","3PB5A5BD0V7IQEKILBTTJJNZB4TG7Q","9","4","0","Yes","1","1","2327","2017-10-16 16:08:49","4330"
"A241PV6A122I5X","caus_thomas_fire_v5","3VBEN272MK049C4A9ER4EAJVYI6SGP","2","6","0","No","1","1","2709","2017-10-16 16:08:49","4331"
"AKPXWXJFLHM08","caus_thomas_fire_v5","39L1G8WVWQS3LGTS1G50ZF7D4DP137","5","9","0","No","0","0","1767","2017-10-16 16:08:49","4332"
"A1RXG8RE0SJ4LC","caus_thomas_fire_v5","3A0EX8ZRN8P5EH88SYRFVLGZZQAYBS","7","8","0","Yes","1","1","1330","2017-10-16 16:08:49","4333"
"A2R0Y8A3SSZ30S","caus_thomas_fire_v5","3R08VXYT7CWEN0AI0GXB5M9N5SJW75","3","6","0","No","1","1","7248","2017-10-16 16:08:49","4334"
"A23JA6ICO4BPQ5","caus_thomas_fire_v5","3483FV8BEEK97KY63M3CB1T26A562Z","8","8","0","No","1","0","2154","2017-10-16 16:08:50","4335"
"A239EUWY6SNDEZ","caus_thomas_fire_v5","3HUTX6F6VUOZWQ4A3IP6S1FTRAZ2OK","3","7","0","No","1","1","3904","2017-10-16 16:08:50","4336"
"AB5976B6VKZYC","caus_thomas_fire_v5","32UTUBMZ7GXOAND3NN4VOMC5H98VBG","5","7","0","Yes","1","0","2556","2017-10-16 16:08:50","4337"
"A3IR7DFEKLLLO","caus_thomas_fire_v5","386PBUZZXFYRW1ZLXBF6Z1XGYGFLJ8","2","4","0","Yes","1","0","3604","2017-10-16 16:08:50","4338"
"A38ECJNH8AQKV4
","caus_thomas_fire_v5","3PQMUDRV7R7TBP79UQXTVKQO4XWIIF","7","2","0","No","1","0","6041","2017-10-16 16:08:51","4339"
"A3JGW4RGO86NPX","caus_thomas_fire_v5","32AT8R96GLANEU55TJGLIPKM7QLSUP","1","9","0","No","1","1","5642","2017-10-16 16:08:51","4340"
"A17J1CE7N49Z9D","caus_thomas_fire_v5","3K9FOBBF2HKNFRQ6C97YS8EX70KNLE","8","2","0","No","1","1","3412","2017-10-16 16:08:51","4341"
"ADAGUJNWMEPT6","caus_thomas_fire_v5","339ANSOTR53KHKXXUTI58051W1LIKQ","8","2","0","No","1","1","2839","2017-10-16 16:08:51","4342"
"A1RXG8RE0SJ4LC","caus_thomas_fire_v5","3A0EX8ZRN8P5EH88SYRFVLGZZQAYBS","8","1","0","Yes","1","1","1218","2017-10-16 16:08:51","4343"
"A3GHK21QETWLZJ","caus_thomas_fire_v5","3LOZAJ85YDEMQZI249C2BE6M3E42XP","5","8","0","No","1","0","3827","2017-10-16 16:08:51","4344"
"ADLF8HVS3C7IL","caus_thomas_fire_v5","3QXNC7EIPIWPTTXQM62ACNRPZDT90T","0","6","0","No","1","1","3571","2017-10-16 16:08:52","4345"
"AKPXWXJFLHM08","caus_thomas_fire_v5","39L1G8WVWQS3LGTS1G50ZF7D4DP137","6","0","0","No","0","0","1826","2017-10-16 16:08:52","4346"
"A1CM612SSQU5L","caus_thomas_fire_v5","33NF62TLXJ3GCVH3CB35K1K19GAKJ4","4","2","0","No","1","0","4558","2017-10-16 16:08:52","4347"
"A1WPXQWFALCA65","caus_thomas_fire_v5","3MAOD8E57QBIFL7VQSAM329KE9UNX0","1","2","0","No","1","0","5497","2017-10-16 16:08:52","4348"
"AH31QLJ57XC8W","caus_thomas_fire_v5","39PAAFCODM1O697KN9VGOGIRNG8VT6","3","7","0","No","0","0","3136","2017-10-16 16:08:52","4349"
"A23JA6ICO4BPQ5","caus_thomas_fire_v5","3483FV8BEEK97KY63M3CB1T26A562Z","9","3","0","Yes","1","0","2098","2017-10-16 16:08:53","4350"
"A241PV6A122I5X","caus_thomas_fire_v5","3VBEN272MK049C4A9ER4EAJVYI6SGP","3","2","0","No","1","1","2936","2017-10-16 16:08:53","4351"
"A1EJS3MIGVI4M6","caus_thomas_fire_v5","3QAPZX2QN4EET9CR1XNV20JBT7J02S","0","9","0","No","1","0","9341","2017-10-16 16:08:53","4352"
"A2R0Y8A3SSZ30S","caus_thomas_fire_v5","3R08VXYT7CWEN0AI0GXB5M9N5SJW75","4","0","0","Yes","1","1","2680","2017-10-16 16:08:53","4353"
"A3TK7HVFEKB00R","caus_thomas_fire_v5","33C7UALJVLZPMDZYDX0WQWFOKZH816","2","7","0","No","0","1","5648","2017-10-16 16:08:53","4354"
"A6B8DOH3KV5SL","caus_thomas_fire_v5","3QBD8R3Z21K9Z4JX7W8ULGCRBOUO41","4","5","0","No","1","1","4493","2017-10-16 16:08:54","4355"
"A1RXG8RE0SJ4LC","caus_thomas_fire_v5","3A0EX8ZRN8P5EH88SYRFVLGZZQAYBS","9","6","0","Yes","1","1","1249","2017-10-16 16:08:54","4356"
"AKPXWXJFLHM08","caus_thomas_fire_v5","39L1G8WVWQS3LGTS1G50ZF7D4DP137","7","1","0","No","0","0","1338","2017-10-16 16:08:54","4357"
"A3IR7DFEKLLLO","caus_thomas_fire_v5","386PBUZZXFYRW1ZLXBF6Z1XGYGFLJ8","3","0","0","Yes","1","0","3266","2017-10-16 16:08:54","4358"
"A17J1CE7N49Z9D","caus_thomas_fire_v5","3K9FOBBF2HKNFRQ6C97YS8EX70KNLE","9","1","0","No","0","1","2807","2017-10-16 16:08:55","4359"
"AH31QLJ57XC8W","caus_thomas_fire_v5","39PAAFCODM1O697KN9VGOGIRNG8VT6","4","3","0","Yes","1","0","1565","2017-10-16 16:08:55","4360"
"AB5976B6VKZYC","caus_thomas_fire_v5","32UTUBMZ7GXOAND3NN4VOMC5H98VBG","6","8","0","Yes","1","0","4153","2017-10-16 16:08:55","4361"
"A3GHK21QETWLZJ","caus_thomas_fire_v5","3LOZAJ85YDEMQZI249C2BE6M3E42XP","6","0","0","Yes","1","0","2781","2017-10-16 16:08:55","4362"
"AS3YLN1NMQ3T9","caus_thomas_fire_v5","3VNXK88KKCJ5MUY6P3QZXGHFT95V96","2","3","0","Yes","1","0","9393","2017-10-16 16:08:55","4363"
"A3EPDU2O2JMR50","caus_thomas_fire_v5","3SBEHTYCWN4F1PMEY8JWH8KCUGUIYL","0","4","0","Yes","1","0","5922","2017-10-16 16:08:55","4364"
"A6VQ0UN0ETESM","caus_thomas_fire_v5","3Z9WI9EOZZPKLPMDOB0K8O4MWO6KHZ","0","5","0","Yes","1","0","6667","2017-10-16 16:08:56","4366"
"A3JGW4RGO86NPX","caus_thomas_fire_v5","32AT8R96GLANEU55TJGLIPKM7QLSUP","2","2","0","No","1","1","4020","2017-10-16 16:08:56","4365"
"ADAGUJNWMEPT6","caus_thomas_fire_v5","339ANSOTR53KHKXXUTI58051W1LIKQ","9","4","0","Yes","1","1","4123","2017-10-16 16:08:56","4367"
"AKPXWXJFLHM08","caus_thomas_fire_v5","39L1G8WVWQS3LGTS1G50ZF7D4DP137","8","6","0","Yes","1","0","1442","2017-10-16 16:08:56","4368"
"A1CM612SSQU5L","caus_thomas_fire_v5","33NF62TLXJ3GCVH3CB35K1K19GAKJ4","5","6","0","No","1","0","3525","2017-10-16 16:08:57","4369"
"A38ECJNH8AQKV4
","caus_thomas_fire_v5","3PQMUDRV7R7TBP79UQXTVKQO4XWIIF","8","7","0","No","1","0","5354","2017-10-16 16:08:57","4370"
"A2CY1G4VJV3G85","caus_thomas_fire_v5","3G2UL9A02DFGTLVC9YK77SAAHQR67F","0","0","0","No","0","1","10750","2017-10-16 16:08:57","4371"
"A2R0Y8A3SSZ30S","caus_thomas_fire_v5","3R08VXYT7CWEN0AI0GXB5M9N5SJW75","5","3","0","Yes","1","1","3109","2017-10-16 16:08:57","4372"
"ADLF8HVS3C7IL","caus_thomas_fire_v5","3QXNC7EIPIWPTTXQM62ACNRPZDT90T","1","0","0","Yes","1","1","4584","2017-10-16 16:08:57","4373"
"A3TK7HVFEKB00R","caus_thomas_fire_v5","33C7UALJVLZPMDZYDX0WQWFOKZH816","3","5","0","No","0","1","3147","2017-10-16 16:08:57","4374"
"A241PV6A122I5X","caus_thomas_fire_v5","3VBEN272MK049C4A9ER4EAJVYI6SGP","4","3","0","Yes","1","1","4095","2017-10-16 16:08:58","4375"
"A1WPXQWFALCA65","caus_thomas_fire_v5","3MAOD8E57QBIFL7VQSAM329KE9UNX0","2","1","0","Yes","1","0","4624","2017-10-16 16:08:58","4376"
"A239EUWY6SNDEZ","caus_thomas_fire_v5","3HUTX6F6VUOZWQ4A3IP6S1FTRAZ2OK","4","8","0","No","1","1","6985","2017-10-16 16:08:58","4377"
"A3IR7DFEKLLLO","caus_thomas_fire_v5","386PBUZZXFYRW1ZLXBF6Z1XGYGFLJ8","4","5","0","Yes","1","0","2630","2017-10-16 16:08:58","4378"
"A3GHK21QETWLZJ","caus_thomas_fire_v5","3LOZAJ85YDEMQZI249C2BE6M3E42XP","7","1","0","Yes","1","0","1990","2017-10-16 16:08:58","4379"
"AH31QLJ57XC8W","caus_thomas_fire_v5","39PAAFCODM1O697KN9VGOGIRNG8VT6","5","1","0","Yes","1","0","3259","2017-10-16 16:08:59","4380"
"AB5976B6VKZYC","caus_thomas_fire_v5","32UTUBMZ7GXOAND3NN4VOMC5H98VBG","7","4","0","Yes","1","0","3168","2017-10-16 16:08:59","4381"
"AKPXWXJFLHM08","caus_thomas_fire_v5","39L1G8WVWQS3LGTS1G50ZF7D4DP137","9","2","0","Yes","0","0","2339","2017-10-16 16:09:00","4382"
"A3JGW4RGO86NPX","caus_thomas_fire_v5","32AT8R96GLANEU55TJGLIPKM7QLSUP","3","6","0","No","1","1","3851","2017-10-16 16:09:00","4383"
"A6B8DOH3KV5SL","caus_thomas_fire_v5","3QBD8R3Z21K9Z4JX7W8ULGCRBOUO41","5","9","0","No","1","1","6238","2017-10-16 16:09:01","4384"
"A1CM612SSQU5L","caus_thomas_fire_v5","33NF62TLXJ3GCVH3CB35K1K19GAKJ4","6","5","0","No","1","0","3253","2017-10-16 16:09:01","4385"
"AS3YLN1NMQ3T9","caus_thomas_fire_v5","3VNXK88KKCJ5MUY6P3QZXGHFT95V96","3","8","0","No","1","0","4484","2017-10-16 16:09:01","4386"
"ADLF8HVS3C7IL","caus_thomas_fire_v5","3QXNC7EIPIWPTTXQM62ACNRPZDT90T","2","8","0","No","1","1","2777","2017-10-16 16:09:01","4387"
"A3TK7HVFEKB00R","caus_thomas_fire_v5","33C7UALJVLZPMDZYDX0WQWFOKZH816","4","1","0","No","0","1","2734","2017-10-16 16:09:01","4388"
"A3IR7DFEKLLLO","caus_thomas_fire_v5","386PBUZZXFYRW1ZLXBF6Z1XGYGFLJ8","5","1","0","Yes","1","0","2068","2017-10-16 16:09:01","4389"
"A3EPDU2O2JMR50","caus_thomas_fire_v5","3SBEHTYCWN4F1PMEY8JWH8KCUGUIYL","1","8","0","Yes","1","0","4238","2017-10-16 16:09:01","4390"
"A1EJS3MIGVI4M6","caus_thomas_fire_v5","3QAPZX2QN4EET9CR1XNV20JBT7J02S","1","1","0","Yes","1","0","7443","2017-10-16 16:09:01","4391"
"A2R0Y8A3SSZ30S","caus_thomas_fire_v5","3R08VXYT7CWEN0AI0GXB5M9N5SJW75","6","8","0","No","1","1","3287","2017-10-16 16:09:01","4392"
"A389LTO1Q8DAKN","caus_thomas_fire_v5","3WMOAN2SRBYQBW20QD94FHCZYYMNVX","0","6","0","Yes","0","0","3750","2017-10-16 16:09:02","4393"
"A3GHK21QETWLZJ","caus_thomas_fire_v5","3LOZAJ85YDEMQZI249C2BE6M3E42XP","8","9","0","No","1","0","2434","2017-10-16 16:09:02","4394"
"AH31QLJ57XC8W","caus_thomas_fire_v5","39PAAFCODM1O697KN9VGOGIRNG8VT6","6","0","0",,"0","0","1573","2017-10-16 16:09:02","4395"
"A6VQ0UN0ETESM","caus_thomas_fire_v5","3Z9WI9EOZZPKLPMDOB0K8O4MWO6KHZ","1","1","0","Yes","1","0","5404","2017-10-16 16:09:02","4396"
"A24ZAX5O63WVNI","caus_thomas_fire_v5","34Z02EIMISE8D864KC7R3NS1TKVT0C","0","7","0","Yes","1","0","5536","2017-10-16 16:09:03","4397"
"A241PV6A122I5X","caus_thomas_fire_v5","3VBEN272MK049C4A9ER4EAJVYI6SGP","5","4","0","No","1","1","4183","2017-10-16 16:09:03","4398"
"AGON2ML5JT2OI","caus_thomas_fire_v5","3Y5140Z9DXHLSBUD7LND4HR0QBRIPR","2","6","0","Yes","1","0","13779","2017-10-16 16:09:03","4399"
"AB5976B6VKZYC","caus_thomas_fire_v5","32UTUBMZ7GXOAND3NN4VOMC5H98VBG","8","0","0","Yes","1","0","3406","2017-10-16 16:09:04","4400"
"A38ECJNH8AQKV4
","caus_thomas_fire_v5","3PQMUDRV7R7TBP79UQXTVKQO4XWIIF","9","1","0","Yes","1","0","5884","2017-10-16 16:09:04","4401"
"A1WPXQWFALCA65","caus_thomas_fire_v5","3MAOD8E57QBIFL7VQSAM329KE9UNX0","3","0","0","Yes","1","0","5047","2017-10-16 16:09:04","4402"
"A3TK7HVFEKB00R","caus_thomas_fire_v5","33C7UALJVLZPMDZYDX0WQWFOKZH816","5","4","0","No","0","1","2120","2017-10-16 16:09:04","4403"
"A3EPDU2O2JMR50","caus_thomas_fire_v5","3SBEHTYCWN4F1PMEY8JWH8KCUGUIYL","2","6","0","Yes","1","0","2636","2017-10-16 16:09:05","4404"
"A1CM612SSQU5L","caus_thomas_fire_v5","33NF62TLXJ3GCVH3CB35K1K19GAKJ4","7","4","0","No","1","0","3621","2017-10-16 16:09:05","4405"
"ADLF8HVS3C7IL","caus_thomas_fire_v5","3QXNC7EIPIWPTTXQM62ACNRPZDT90T","3","1","0","Yes","1","1","3679","2017-10-16 16:09:06","4406"
"A3GHK21QETWLZJ","caus_thomas_fire_v5","3LOZAJ85YDEMQZI249C2BE6M3E42XP","9","5","0","No","1","0","3089","2017-10-16 16:09:06","4407"
"A3IR7DFEKLLLO","caus_thomas_fire_v5","386PBUZZXFYRW1ZLXBF6Z1XGYGFLJ8","6","2","0","No","1","0","3809","2017-10-16 16:09:06","4408"
"A239EUWY6SNDEZ","caus_thomas_fire_v5","3HUTX6F6VUOZWQ4A3IP6S1FTRAZ2OK","5","1","0","Yes","1","1","6971","2017-10-16 16:09:06","4409"
"A389LTO1Q8DAKN","caus_thomas_fire_v5","3WMOAN2SRBYQBW20QD94FHCZYYMNVX","1","7","0","No","1","0","3525","2017-10-16 16:09:06","4410"
"A191F96P1GIVKX","caus_thomas_fire_v5","34T446B1C0FRRR4TYQC1EDSX5YW0C1","6","7","0","No","1","0","16700","2017-10-16 16:09:06","4411"
"A3JGW4RGO86NPX","caus_thomas_fire_v5","32AT8R96GLANEU55TJGLIPKM7QLSUP","4","4","0","No","1","1","4884","2017-10-16 16:09:06","4412"
"A3TK7HVFEKB00R","caus_thomas_fire_v5","33C7UALJVLZPMDZYDX0WQWFOKZH816","6","9","0","No","0","1","1584","2017-10-16 16:09:07","4413"
"A26SF9CTNKKBYB","caus_thomas_fire_v5","3S96KQ6I9M52CS7YWOVMIUCKN95DTQ","0","4","0","No","1","0","5022","2017-10-16 16:09:07","4414"
"A241PV6A122I5X","caus_thomas_fire_v5","3VBEN272MK049C4A9ER4EAJVYI6SGP","6","8","0","No","1","1","2810","2017-10-16 16:09:07","4415"
"AH31QLJ57XC8W","caus_thomas_fire_v5","39PAAFCODM1O697KN9VGOGIRNG8VT6","7","4","0","Yes","1","0","3986","2017-10-16 16:09:07","4416"
"A2E2UARVOVDR9Y","caus_thomas_fire_v5","3FTOP5WARFPEZ5AZ8ITN1H5SVI4J0X","0","2","0","No","1","1","5098","2017-10-16 16:09:07","4417"
"A6B8DOH3KV5SL","caus_thomas_fire_v5","3QBD8R3Z21K9Z4JX7W8ULGCRBOUO41","6","8","0","No","1","1","6245","2017-10-16 16:09:08","4418"
"AWDU600NXZ26L","caus_thomas_fire_v5","32EYX73OY0ABDF5SEUGGSFFQLO2UR3","0","7","0","Yes","1","1","8796","2017-10-16 16:09:08","4419"
"ADLF8HVS3C7IL","caus_thomas_fire_v5","3QXNC7EIPIWPTTXQM62ACNRPZDT90T","4","7","0","No","1","1","2199","2017-10-16 16:09:09","4420"
"AB5976B6VKZYC","caus_thomas_fire_v5","32UTUBMZ7GXOAND3NN4VOMC5H98VBG","9","5","0","Yes","1","0","4077","2017-10-16 16:09:09","4421"
"A24ZAX5O63WVNI","caus_thomas_fire_v5","34Z02EIMISE8D864KC7R3NS1TKVT0C","1","3","0","Yes","1","0","5311","2017-10-16 16:09:09","4422"
"A241PV6A122I5X","caus_thomas_fire_v5","3VBEN272MK049C4A9ER4EAJVYI6SGP","7","0","0","Yes","1","1","1172","2017-10-16 16:09:09","4423"
"A2CY1G4VJV3G85","caus_thomas_fire_v5","3G2UL9A02DFGTLVC9YK77SAAHQR67F","1","6","0","Yes","1","1","10926","2017-10-16 16:09:09","4424"
"A3TK7HVFEKB00R","caus_thomas_fire_v5","33C7UALJVLZPMDZYDX0WQWFOKZH816","7","2","0","No","1","1","1308","2017-10-16 16:09:09","4425"
"A1WPXQWFALCA65","caus_thomas_fire_v5","3MAOD8E57QBIFL7VQSAM329KE9UNX0","4","4","0","No","1","0","4173","2017-10-16 16:09:09","4426"
"A3EPDU2O2JMR50","caus_thomas_fire_v5","3SBEHTYCWN4F1PMEY8JWH8KCUGUIYL","3","3","0","Yes","1","0","3722","2017-10-16 16:09:09","4427"
"AS3YLN1NMQ3T9","caus_thomas_fire_v5","3VNXK88KKCJ5MUY6P3QZXGHFT95V96","4","2","0","No","1","0","8037","2017-10-16 16:09:10","4428"
"A239EUWY6SNDEZ","caus_thomas_fire_v5","3HUTX6F6VUOZWQ4A3IP6S1FTRAZ2OK","6","6","0","No","1","1","3127","2017-10-16 16:09:10","4429"
"A6VQ0UN0ETESM","caus_thomas_fire_v5","3Z9WI9EOZZPKLPMDOB0K8O4MWO6KHZ","2","3","0","Yes","1","0","7071","2017-10-16 16:09:10","4430"
"AGON2ML5JT2OI","caus_thomas_fire_v5","3Y5140Z9DXHLSBUD7LND4HR0QBRIPR","3","5","0","Yes","1","0","6185","2017-10-16 16:09:10","4431"
"A26EZ702FBTS56","caus_thomas_fire_v5","3ZY8KE4ISJ4BETFS651LJB74399QVN","0","6","0","No","1","0","6469","2017-10-16 16:09:10","4432"
"A3IR7DFEKLLLO","caus_thomas_fire_v5","386PBUZZXFYRW1ZLXBF6Z1XGYGFLJ8","7","3","0","Yes","1","0","3538","2017-10-16 16:09:10","4433"
"A1CM612SSQU5L","caus_thomas_fire_v5","33NF62TLXJ3GCVH3CB35K1K19GAKJ4","8","0","0","Yes","1","0","4055","2017-10-16 16:09:11","4434"
"A2R0Y8A3SSZ30S","caus_thomas_fire_v5","3R08VXYT7CWEN0AI0GXB5M9N5SJW75","7","7","0","No","1","1","8484","2017-10-16 16:09:11","4435"
"A3TK7HVFEKB00R","caus_thomas_fire_v5","33C7UALJVLZPMDZYDX0WQWFOKZH816","8","8","0","No","0","1","1328","2017-10-16 16:09:11","4436"
"A26SF9CTNKKBYB","caus_thomas_fire_v5","3S96KQ6I9M52CS7YWOVMIUCKN95DTQ","1","6","0","No","1","0","3615","2017-10-16 16:09:11","4437"
"A389LTO1Q8DAKN","caus_thomas_fire_v5","3WMOAN2SRBYQBW20QD94FHCZYYMNVX","2","3","0","Yes","1","0","4645","2017-10-16 16:09:12","4438"
"A2E2UARVOVDR9Y","caus_thomas_fire_v5","3FTOP5WARFPEZ5AZ8ITN1H5SVI4J0X","1","8","0","No","1","1","3893","2017-10-16 16:09:12","4439"
"A6B8DOH3KV5SL","caus_thomas_fire_v5","3QBD8R3Z21K9Z4JX7W8ULGCRBOUO41","7","2","0","No","1","1","2927","2017-10-16 16:09:12","4440"
"AH31QLJ57XC8W","caus_thomas_fire_v5","39PAAFCODM1O697KN9VGOGIRNG8VT6","8","2","0","No","1","0","4100","2017-10-16 16:09:12","4441"
"ADLF8HVS3C7IL","caus_thomas_fire_v5","3QXNC7EIPIWPTTXQM62ACNRPZDT90T","5","3","0","Yes","1","1","2259","2017-10-16 16:09:12","4442"
"A2UVD05SNXJBTF","caus_thomas_fire_v5","39GAF6DQWR1NXPVBLQB6IAZWVXI1V4","0","1","0","Yes","1","0","4974","2017-10-16 16:09:12","4443"
"A1EJS3MIGVI4M6","caus_thomas_fire_v5","3QAPZX2QN4EET9CR1XNV20JBT7J02S","2","8","0","No","1","0","10290","2017-10-16 16:09:13","4444"
"A2CY1G4VJV3G85","caus_thomas_fire_v5","3G2UL9A02DFGTLVC9YK77SAAHQR67F","2","2","0","No","1","1","3083","2017-10-16 16:09:13","4445"
"A3JGW4RGO86NPX","caus_thomas_fire_v5","32AT8R96GLANEU55TJGLIPKM7QLSUP","5","8","0","No","1","1","5994","2017-10-16 16:09:13","4446"
"A0657006AJFWB5ZA91B2","caus_thomas_fire_v5","354GIDR5ZB77XZ9DMAJHJCQWW9Z008","0","0","0","Yes","1","1","7329","2017-10-16 16:09:14","4447"
"A239EUWY6SNDEZ","caus_thomas_fire_v5","3HUTX6F6VUOZWQ4A3IP6S1FTRAZ2OK","7","5","0","No","1","1","3044","2017-10-16 16:09:14","4448"
"AWDU600NXZ26L","caus_thomas_fire_v5","32EYX73OY0ABDF5SEUGGSFFQLO2UR3","1","1","0","Yes","1","1","5404","2017-10-16 16:09:15","4449"
"A3EPDU2O2JMR50","caus_thomas_fire_v5","3SBEHTYCWN4F1PMEY8JWH8KCUGUIYL","4","7","0","Yes","1","0","3883","2017-10-16 16:09:15","4450"
"A241PV6A122I5X","caus_thomas_fire_v5","3VBEN272MK049C4A9ER4EAJVYI6SGP","9","5","0","No","1","1","1622","2017-10-16 16:09:15","4451"
"AGON2ML5JT2OI","caus_thomas_fire_v5","3Y5140Z9DXHLSBUD7LND4HR0QBRIPR","4","8","0","Yes","1","0","3611","2017-10-16 16:09:15","4452"
"A3IR7DFEKLLLO","caus_thomas_fire_v5","386PBUZZXFYRW1ZLXBF6Z1XGYGFLJ8","8","6","0","Yes","1","0","3583","2017-10-16 16:09:15","4453"
"A3TK7HVFEKB00R","caus_thomas_fire_v5","33C7UALJVLZPMDZYDX0WQWFOKZH816","9","0","0","No","0","1","2716","2017-10-16 16:09:15","4454"
"A2R0Y8A3SSZ30S","caus_thomas_fire_v5","3R08VXYT7CWEN0AI0GXB5M9N5SJW75","8","1","0","Yes","1","1","3240","2017-10-16 16:09:15","4455"
"A1CM612SSQU5L","caus_thomas_fire_v5","33NF62TLXJ3GCVH3CB35K1K19GAKJ4","9","3","0","Yes","1","0","4023","2017-10-16 16:09:16","4456"
"AH31QLJ57XC8W","caus_thomas_fire_v5","39PAAFCODM1O697KN9VGOGIRNG8VT6","9","6","0","Yes","1","0","2691","2017-10-16 16:09:16","4457"
"A24ZAX5O63WVNI","caus_thomas_fire_v5","34Z02EIMISE8D864KC7R3NS1TKVT0C","2","4","0","Yes","1","0","5738","2017-10-16 16:09:16","4458"
"A191F96P1GIVKX","caus_thomas_fire_v5","34T446B1C0FRRR4TYQC1EDSX5YW0C1","7","2","0","No","1","0","8550","2017-10-16 16:09:16","4459"
"A2E2UARVOVDR9Y","caus_thomas_fire_v5","3FTOP5WARFPEZ5AZ8ITN1H5SVI4J0X","2","9","0","No","1","1","2895","2017-10-16 16:09:16","4460"
"A26EZ702FBTS56","caus_thomas_fire_v5","3ZY8KE4ISJ4BETFS651LJB74399QVN","1","1","0","Yes","1","0","5080","2017-10-16 16:09:16","4461"
"A1WPXQWFALCA65","caus_thomas_fire_v5","3MAOD8E57QBIFL7VQSAM329KE9UNX0","5","8","0","No","1","0","6674","2017-10-16 16:09:17","4462"
"AS3YLN1NMQ3T9","caus_thomas_fire_v5","3VNXK88KKCJ5MUY6P3QZXGHFT95V96","5","1","0","Yes","1","0","5790","2017-10-16 16:09:17","4463"
"A389LTO1Q8DAKN","caus_thomas_fire_v5","3WMOAN2SRBYQBW20QD94FHCZYYMNVX","3","4","0","No","1","0","4072","2017-10-16 16:09:17","4464"
" AOTUGFGVVZMSQ","caus_thomas_fire_v5","38JBBYETQOBNND68DI5YG4ID7MP4EE","0","0","0","Yes","1","1","6113","2017-10-16 16:09:17","4465"
"A2FOOQ0376XKCO","caus_thomas_fire_v5","3X3OR7WPZZ12CK3267IFABO2I5M8LC","0","0","0","Yes","1","1","10517","2017-10-16 16:09:17","4466"
"A26SF9CTNKKBYB","caus_thomas_fire_v5","3S96KQ6I9M52CS7YWOVMIUCKN95DTQ","2","3","0","Yes","1","0","4877","2017-10-16 16:09:17","4467"
"A6B8DOH3KV5SL","caus_thomas_fire_v5","3QBD8R3Z21K9Z4JX7W8ULGCRBOUO41","8","7","0","No","1","1","4224","2017-10-16 16:09:17","4468"
"AKY00Z7IB63UV","caus_thomas_fire_v5","3YGXWBAF70I8QFMUHRZ3QGIAMAC4CL","0","5","0","No","1","1","6241","2017-10-16 16:09:17","4469"
"ADLF8HVS3C7IL","caus_thomas_fire_v5","3QXNC7EIPIWPTTXQM62ACNRPZDT90T","6","2","0","No","1","1","4228","2017-10-16 16:09:17","4470"
"A2UVD05SNXJBTF","caus_thomas_fire_v5","39GAF6DQWR1NXPVBLQB6IAZWVXI1V4","1","9","0","Yes","1","0","4204","2017-10-16 16:09:17","4471"
"A3IR7DFEKLLLO","caus_thomas_fire_v5","386PBUZZXFYRW1ZLXBF6Z1XGYGFLJ8","9","8","0","Yes","1","0","1644","2017-10-16 16:09:18","4472"
"A3EPDU2O2JMR50","caus_thomas_fire_v5","3SBEHTYCWN4F1PMEY8JWH8KCUGUIYL","5","0","0","Yes","1","0","2124","2017-10-16 16:09:18","4473"
"A2CY1G4VJV3G85","caus_thomas_fire_v5","3G2UL9A02DFGTLVC9YK77SAAHQR67F","3","7","0","Yes","1","1","3826","2017-10-16 16:09:18","4474"
"A1153ONO49N24LO","caus_thomas_fire_v5","3ITXP059PWKE0EUBHKC7BNBBQANSJT","0","6","0","Yes","1","1","12024","2017-10-16 16:09:19","4475"
"A239EUWY6SNDEZ","caus_thomas_fire_v5","3HUTX6F6VUOZWQ4A3IP6S1FTRAZ2OK","8","3","0","Yes","1","1","3612","2017-10-16 16:09:19","4476"
"A1EJS3MIGVI4M6","caus_thomas_fire_v5","3QAPZX2QN4EET9CR1XNV20JBT7J02S","3","5","0","No","1","0","5348","2017-10-16 16:09:19","4477"
"A2R0Y8A3SSZ30S","caus_thomas_fire_v5","3R08VXYT7CWEN0AI0GXB5M9N5SJW75","9","2","0","No","1","1","2811","2017-10-16 16:09:19","4478"
"AGON2ML5JT2OI","caus_thomas_fire_v5","3Y5140Z9DXHLSBUD7LND4HR0QBRIPR","5","1","0","Yes","1","0","3364","2017-10-16 16:09:19","4479"
"A389LTO1Q8DAKN","caus_thomas_fire_v5","3WMOAN2SRBYQBW20QD94FHCZYYMNVX","4","1","0","Yes","1","0","1859","2017-10-16 16:09:20","4480"
"A2B6PP2KXD19N6","caus_thomas_fire_v5","3R5F3LQFV2LP217MSPYKFCP0CJXZOO","0","1","0","Yes","1","1","4841","2017-10-16 16:09:20","4481"
"AWDU600NXZ26L","caus_thomas_fire_v5","32EYX73OY0ABDF5SEUGGSFFQLO2UR3","2","8","0","Yes","1","1","4396","2017-10-16 16:09:20","4482"
"A2E2UARVOVDR9Y","caus_thomas_fire_v5","3FTOP5WARFPEZ5AZ8ITN1H5SVI4J0X","3","5","0","No","1","1","3190","2017-10-16 16:09:20","4483"
"ADLF8HVS3C7IL","caus_thomas_fire_v5","3QXNC7EIPIWPTTXQM62ACNRPZDT90T","7","9","0","No","1","1","1838","2017-10-16 16:09:20","4484"
"A191F96P1GIVKX","caus_thomas_fire_v5","34T446B1C0FRRR4TYQC1EDSX5YW0C1","8","8","0","No","1","0","3903","2017-10-16 16:09:21","4485"
"A0657006AJFWB5ZA91B2","caus_thomas_fire_v5","354GIDR5ZB77XZ9DMAJHJCQWW9Z008","1","8","0","Yes","1","1","6336","2017-10-16 16:09:21","4486"
"A24ZAX5O63WVNI","caus_thomas_fire_v5","34Z02EIMISE8D864KC7R3NS1TKVT0C","3","1","0","Yes","1","0","4180","2017-10-16 16:09:21","4487"
"A26EZ702FBTS56","caus_thomas_fire_v5","3ZY8KE4ISJ4BETFS651LJB74399QVN","2","4","0","No","1","0","3800","2017-10-16 16:09:21","4488"
"A2UVD05SNXJBTF","caus_thomas_fire_v5","39GAF6DQWR1NXPVBLQB6IAZWVXI1V4","2","5","0","Yes","1","0","3151","2017-10-16 16:09:21","4489"
"A26SF9CTNKKBYB","caus_thomas_fire_v5","3S96KQ6I9M52CS7YWOVMIUCKN95DTQ","3","9","0","No","1","0","3355","2017-10-16 16:09:22","4490"
"A6VQ0UN0ETESM","caus_thomas_fire_v5","3Z9WI9EOZZPKLPMDOB0K8O4MWO6KHZ","3","0","0","Yes","1","0","10679","2017-10-16 16:09:22","4491"
" AOTUGFGVVZMSQ","caus_thomas_fire_v5","38JBBYETQOBNND68DI5YG4ID7MP4EE","1","3","0","Yes","1","1","4480","2017-10-16 16:09:23","4492"
"A239EUWY6SNDEZ","caus_thomas_fire_v5","3HUTX6F6VUOZWQ4A3IP6S1FTRAZ2OK","9","9","0","No","1","1","3028","2017-10-16 16:09:23","4493"
"AGON2ML5JT2OI","caus_thomas_fire_v5","3Y5140Z9DXHLSBUD7LND4HR0QBRIPR","6","4","0","Yes","1","0","2769","2017-10-16 16:09:23","4494"
"A389LTO1Q8DAKN","caus_thomas_fire_v5","3WMOAN2SRBYQBW20QD94FHCZYYMNVX","5","9","0","No","1","0","2416","2017-10-16 16:09:23","4495"
"A2FOOQ0376XKCO","caus_thomas_fire_v5","3X3OR7WPZZ12CK3267IFABO2I5M8LC","1","1","0","Yes","1","1","4967","2017-10-16 16:09:23","4496"
"A3JGW4RGO86NPX","caus_thomas_fire_v5","32AT8R96GLANEU55TJGLIPKM7QLSUP","6","3","0","Yes","1","1","8877","2017-10-16 16:09:23","4497"
"A1WPXQWFALCA65","caus_thomas_fire_v5","3MAOD8E57QBIFL7VQSAM329KE9UNX0","6","6","0","No","1","0","5488","2017-10-16 16:09:23","4498"
"A3EPDU2O2JMR50","caus_thomas_fire_v5","3SBEHTYCWN4F1PMEY8JWH8KCUGUIYL","6","2","0","No","1","0","4533","2017-10-16 16:09:23","4499"
"A2B6PP2KXD19N6","caus_thomas_fire_v5","3R5F3LQFV2LP217MSPYKFCP0CJXZOO","1","0","0","Yes","1","1","2793","2017-10-16 16:09:24","4500"
"A1153ONO49N24LO","caus_thomas_fire_v5","3ITXP059PWKE0EUBHKC7BNBBQANSJT","1","8","0","Yes","1","1","4155","2017-10-16 16:09:24","4501"
"ADLF8HVS3C7IL","caus_thomas_fire_v5","3QXNC7EIPIWPTTXQM62ACNRPZDT90T","8","5","0","No","1","1","2607","2017-10-16 16:09:24","4502"
"AKY00Z7IB63UV","caus_thomas_fire_v5","3YGXWBAF70I8QFMUHRZ3QGIAMAC4CL","1","0","0","Yes","1","1","6555","2017-10-16 16:09:25","4503"
"AS3YLN1NMQ3T9","caus_thomas_fire_v5","3VNXK88KKCJ5MUY6P3QZXGHFT95V96","6","6","0","No","1","0","6934","2017-10-16 16:09:25","4504"
"AWDU600NXZ26L","caus_thomas_fire_v5","32EYX73OY0ABDF5SEUGGSFFQLO2UR3","3","2","0","No","1","1","3709","2017-10-16 16:09:25","4505"
"A39ROW50DWRRKT","caus_thomas_fire_v5","3ON104KXQKXH4DSZYIZ42APDEQTW4L","0","1","0","Yes","1","1","9078","2017-10-16 16:09:25","4506"
"A26EZ702FBTS56","caus_thomas_fire_v5","3ZY8KE4ISJ4BETFS651LJB74399QVN","3","0","0","Yes","1","0","3069","2017-10-16 16:09:25","4507"
"A191F96P1GIVKX","caus_thomas_fire_v5","34T446B1C0FRRR4TYQC1EDSX5YW0C1","9","0","0","Yes","1","0","3530","2017-10-16 16:09:25","4508"
"A1EJS3MIGVI4M6","caus_thomas_fire_v5","3QAPZX2QN4EET9CR1XNV20JBT7J02S","4","7","0","No","1","0","5500","2017-10-16 16:09:25","4509"
"A26SF9CTNKKBYB","caus_thomas_fire_v5","3S96KQ6I9M52CS7YWOVMIUCKN95DTQ","4","2","0","No","1","0","2833","2017-10-16 16:09:25","4510"
"A6B8DOH3KV5SL","caus_thomas_fire_v5","3QBD8R3Z21K9Z4JX7W8ULGCRBOUO41","9","1","0","Yes","1","1","7320","2017-10-16 16:09:26","4511"
"A2UVD05SNXJBTF","caus_thomas_fire_v5","39GAF6DQWR1NXPVBLQB6IAZWVXI1V4","3","6","0","Yes","1","0","3427","2017-10-16 16:09:26","4512"
"A3EPDU2O2JMR50","caus_thomas_fire_v5","3SBEHTYCWN4F1PMEY8JWH8KCUGUIYL","7","5","0","Yes","1","0","2169","2017-10-16 16:09:27","4513"
"A24ZAX5O63WVNI","caus_thomas_fire_v5","34Z02EIMISE8D864KC7R3NS1TKVT0C","4","9","0","Yes","1","0","4550","2017-10-16 16:09:27","4514"
"ADLF8HVS3C7IL","caus_thomas_fire_v5","3QXNC7EIPIWPTTXQM62ACNRPZDT90T","9","4","0","No","1","1","1852","2017-10-16 16:09:27","4515"
"A2B6PP2KXD19N6","caus_thomas_fire_v5","3R5F3LQFV2LP217MSPYKFCP0CJXZOO","2","7","0","No","1","1","2534","2017-10-16 16:09:27","4516"
"A6VQ0UN0ETESM","caus_thomas_fire_v5","3Z9WI9EOZZPKLPMDOB0K8O4MWO6KHZ","4","2","0","No","1","0","4542","2017-10-16 16:09:27","4517"
"A389LTO1Q8DAKN","caus_thomas_fire_v5","3WMOAN2SRBYQBW20QD94FHCZYYMNVX","6","8","0","No","1","0","3281","2017-10-16 16:09:27","4518"
"AGON2ML5JT2OI","caus_thomas_fire_v5","3Y5140Z9DXHLSBUD7LND4HR0QBRIPR","7","9","0","Yes","1","0","3586","2017-10-16 16:09:28","4519"
" AOTUGFGVVZMSQ","caus_thomas_fire_v5","38JBBYETQOBNND68DI5YG4ID7MP4EE","2","8","0","Yes","1","1","4345","2017-10-16 16:09:28","4520"
"A30R3WV69IZX6I","caus_thomas_fire_v5","30LB5CDZNCB4ZKF3Q4W9PBTIEGI0Z0","0","1","0","Yes","1","0","6455","2017-10-16 16:09:28","4521"
"A2CY1G4VJV3G85","caus_thomas_fire_v5","3G2UL9A02DFGTLVC9YK77SAAHQR67F","4","1","0","Yes","1","1","9121","2017-10-16 16:09:28","4522"
"A0657006AJFWB5ZA91B2","caus_thomas_fire_v5","354GIDR5ZB77XZ9DMAJHJCQWW9Z008","2","1","0","Yes","1","1","6703","2017-10-16 16:09:29","4523"
"A1WPXQWFALCA65","caus_thomas_fire_v5","3MAOD8E57QBIFL7VQSAM329KE9UNX0","7","7","0","No","1","0","4405","2017-10-16 16:09:29","4524"
"AKY00Z7IB63UV","caus_thomas_fire_v5","3YGXWBAF70I8QFMUHRZ3QGIAMAC4CL","2","2","0","No","1","1","3092","2017-10-16 16:09:29","4525"
"A2FOOQ0376XKCO","caus_thomas_fire_v5","3X3OR7WPZZ12CK3267IFABO2I5M8LC","2","7","0","Yes","1","1","4747","2017-10-16 16:09:29","4526"
"A1153ONO49N24LO","caus_thomas_fire_v5","3ITXP059PWKE0EUBHKC7BNBBQANSJT","2","3","0","Yes","1","1","4346","2017-10-16 16:09:29","4527"
"A26EZ702FBTS56","caus_thomas_fire_v5","3ZY8KE4ISJ4BETFS651LJB74399QVN","4","3","0","Yes","1","0","2990","2017-10-16 16:09:29","4528"
"A3EPDU2O2JMR50","caus_thomas_fire_v5","3SBEHTYCWN4F1PMEY8JWH8KCUGUIYL","8","9","0","Yes","1","0","1779","2017-10-16 16:09:29","4529"
"A26SF9CTNKKBYB","caus_thomas_fire_v5","3S96KQ6I9M52CS7YWOVMIUCKN95DTQ","5","1","0","Yes","1","0","2887","2017-10-16 16:09:29","4530"
"A39ROW50DWRRKT","caus_thomas_fire_v5","3ON104KXQKXH4DSZYIZ42APDEQTW4L","1","2","0","No","1","1","3408","2017-10-16 16:09:30","4531"
"A3JGW4RGO86NPX","caus_thomas_fire_v5","32AT8R96GLANEU55TJGLIPKM7QLSUP","7","1","0","Yes","1","1","5396","2017-10-16 16:09:30","4532"
"A18VPS125O9ZE4","caus_thomas_fire_v5","3X0H8UUIT1P06YUAOJVM0D5JS6WSWO","0","6","0","No","1","0","11478","2017-10-16 16:09:30","4533"
"A2UVD05SNXJBTF","caus_thomas_fire_v5","39GAF6DQWR1NXPVBLQB6IAZWVXI1V4","4","2","0","No","1","0","3285","2017-10-16 16:09:30","4534"
"A36W1S4Z2LSNTC","caus_thomas_fire_v5","3LO69W1SU3EH5Z9KP5U32O506OZGL0","0","5","0","Yes","1","0","4613","2017-10-16 16:09:30","4535"
"A2B6PP2KXD19N6","caus_thomas_fire_v5","3R5F3LQFV2LP217MSPYKFCP0CJXZOO","3","6","0","No","1","1","2524","2017-10-16 16:09:31","4536"
"AWDU600NXZ26L","caus_thomas_fire_v5","32EYX73OY0ABDF5SEUGGSFFQLO2UR3","4","6","0","Yes","1","1","5060","2017-10-16 16:09:31","4537"
"A389LTO1Q8DAKN","caus_thomas_fire_v5","3WMOAN2SRBYQBW20QD94FHCZYYMNVX","7","2","0","Yes","0","0","3057","2017-10-16 16:09:31","4538"
"A1EJS3MIGVI4M6","caus_thomas_fire_v5","3QAPZX2QN4EET9CR1XNV20JBT7J02S","5","6","0","No","1","0","5077","2017-10-16 16:09:32","4539"
"A24ZAX5O63WVNI","caus_thomas_fire_v5","34Z02EIMISE8D864KC7R3NS1TKVT0C","5","6","0","Yes","1","0","4238","2017-10-16 16:09:32","4540"
"A26SF9CTNKKBYB","caus_thomas_fire_v5","3S96KQ6I9M52CS7YWOVMIUCKN95DTQ","6","7","0","No","1","0","2160","2017-10-16 16:09:33","4541"
"AS3YLN1NMQ3T9","caus_thomas_fire_v5","3VNXK88KKCJ5MUY6P3QZXGHFT95V96","7","5","0","No","1","0","7149","2017-10-16 16:09:33","4542"
"AGON2ML5JT2OI","caus_thomas_fire_v5","3Y5140Z9DXHLSBUD7LND4HR0QBRIPR","8","3","0","Yes","1","0","4399","2017-10-16 16:09:33","4543"
"A3EPDU2O2JMR50","caus_thomas_fire_v5","3SBEHTYCWN4F1PMEY8JWH8KCUGUIYL","9","1","0","Yes","1","0","2685","2017-10-16 16:09:33","4544"
"A3QN9B9ZS1CWWM","caus_thomas_fire_v5","3U4J9857OECMZXC75P1FI8W2VR2B75","0","8","0","No","1","0","7105","2017-10-16 16:09:33","4545"
"A26EZ702FBTS56","caus_thomas_fire_v5","3ZY8KE4ISJ4BETFS651LJB74399QVN","5","2","0","No","1","0","3191","2017-10-16 16:09:33","4546"
"AKY00Z7IB63UV","caus_thomas_fire_v5","3YGXWBAF70I8QFMUHRZ3QGIAMAC4CL","3","8","0","No","1","1","3765","2017-10-16 16:09:34","4547"
"A2FOOQ0376XKCO","caus_thomas_fire_v5","3X3OR7WPZZ12CK3267IFABO2I5M8LC","3","6","0","Yes","1","1","3746","2017-10-16 16:09:34","4548"
" AOTUGFGVVZMSQ","caus_thomas_fire_v5","38JBBYETQOBNND68DI5YG4ID7MP4EE","3","5","0","Yes","1","1","4897","2017-10-16 16:09:34","4549"
"A1153ONO49N24LO","caus_thomas_fire_v5","3ITXP059PWKE0EUBHKC7BNBBQANSJT","3","5","0","Yes","1","1","3625","2017-10-16 16:09:34","4550"
"A6VQ0UN0ETESM","caus_thomas_fire_v5","3Z9WI9EOZZPKLPMDOB0K8O4MWO6KHZ","5","9","0","Yes","1","0","5385","2017-10-16 16:09:34","4551"
"A2UKVP21FXQ5BA
","caus_thomas_fire_v5","33LKR6A5KEL8KXRMGVBRHSBBYC21TO","0","6","0","Yes","0","0","10123","2017-10-16 16:09:34","4552"
"A1WPXQWFALCA65","caus_thomas_fire_v5","3MAOD8E57QBIFL7VQSAM329KE9UNX0","8","9","0","No","1","0","4265","2017-10-16 16:09:34","4553"
"A0657006AJFWB5ZA91B2","caus_thomas_fire_v5","354GIDR5ZB77XZ9DMAJHJCQWW9Z008","3","3","0","Yes","1","1","4658","2017-10-16 16:09:34","4554"
"A2B6PP2KXD19N6","caus_thomas_fire_v5","3R5F3LQFV2LP217MSPYKFCP0CJXZOO","4","3","0","Yes","1","1","2837","2017-10-16 16:09:34","4555"
"A2UVD05SNXJBTF","caus_thomas_fire_v5","39GAF6DQWR1NXPVBLQB6IAZWVXI1V4","5","0","0","Yes","1","0","3380","2017-10-16 16:09:35","4556"
"A3JGW4RGO86NPX","caus_thomas_fire_v5","32AT8R96GLANEU55TJGLIPKM7QLSUP","8","5","0","No","1","1","4091","2017-10-16 16:09:35","4557"
"A1L2N1X8U8Z3W7","caus_thomas_fire_v5","35LDD5557A56D3NOF8GX0TCIDA6MKB","0","3","0","Yes","1","1","3313","2017-10-16 16:09:35","4558"
"A39ROW50DWRRKT","caus_thomas_fire_v5","3ON104KXQKXH4DSZYIZ42APDEQTW4L","2","5","0","Yes","1","1","4314","2017-10-16 16:09:35","4559"
"A2CY1G4VJV3G85","caus_thomas_fire_v5","3G2UL9A02DFGTLVC9YK77SAAHQR67F","5","4","0","Yes","1","1","5806","2017-10-16 16:09:35","4560"
"A36W1S4Z2LSNTC","caus_thomas_fire_v5","3LO69W1SU3EH5Z9KP5U32O506OZGL0","1","9","0","Yes","1","0","3570","2017-10-16 16:09:35","4561"
"A18VPS125O9ZE4","caus_thomas_fire_v5","3X0H8UUIT1P06YUAOJVM0D5JS6WSWO","1","2","0","No","1","0","4626","2017-10-16 16:09:36","4562"
"AWDU600NXZ26L","caus_thomas_fire_v5","32EYX73OY0ABDF5SEUGGSFFQLO2UR3","5","5","0","Yes","1","1","3973","2017-10-16 16:09:36","4563"
"AGON2ML5JT2OI","caus_thomas_fire_v5","3Y5140Z9DXHLSBUD7LND4HR0QBRIPR","9","7","0","Yes","1","0","2531","2017-10-16 16:09:37","4564"
"A26SF9CTNKKBYB","caus_thomas_fire_v5","3S96KQ6I9M52CS7YWOVMIUCKN95DTQ","7","0","0","Yes","1","0","3098","2017-10-16 16:09:37","4565"
"A1SHLCA57M79E6","caus_thomas_fire_v5","3ZGVPD4G6TI5FTCUO6KJ9MVNBRETZ4","0","7","0","Yes","1","1","6277","2017-10-16 16:09:37","4566"
"A30R3WV69IZX6I","caus_thomas_fire_v5","30LB5CDZNCB4ZKF3Q4W9PBTIEGI0Z0","1","8","0","No","1","0","8194","2017-10-16 16:09:37","4567"
"A24ZAX5O63WVNI","caus_thomas_fire_v5","34Z02EIMISE8D864KC7R3NS1TKVT0C","6","2","0","No","1","0","4419","2017-10-16 16:09:37","4568"
"A2FOOQ0376XKCO","caus_thomas_fire_v5","3X3OR7WPZZ12CK3267IFABO2I5M8LC","4","5","0","Yes","1","1","3122","2017-10-16 16:09:38","4569"
"A1153ONO49N24LO","caus_thomas_fire_v5","3ITXP059PWKE0EUBHKC7BNBBQANSJT","4","7","0","Yes","1","1","3262","2017-10-16 16:09:38","4570"
"A2B6PP2KXD19N6","caus_thomas_fire_v5","3R5F3LQFV2LP217MSPYKFCP0CJXZOO","5","9","0","No","1","1","2548","2017-10-16 16:09:38","4571"
"AKY00Z7IB63UV","caus_thomas_fire_v5","3YGXWBAF70I8QFMUHRZ3QGIAMAC4CL","4","1","0","Yes","1","1","3582","2017-10-16 16:09:38","4572"
"A3QN9B9ZS1CWWM","caus_thomas_fire_v5","3U4J9857OECMZXC75P1FI8W2VR2B75","1","0","0","Yes","1","0","3721","2017-10-16 16:09:38","4573"
" AOTUGFGVVZMSQ","caus_thomas_fire_v5","38JBBYETQOBNND68DI5YG4ID7MP4EE","4","6","0","Yes","1","1","3515","2017-10-16 16:09:38","4574"
"A36W1S4Z2LSNTC","caus_thomas_fire_v5","3LO69W1SU3EH5Z9KP5U32O506OZGL0","2","8","0","Yes","1","0","2366","2017-10-16 16:09:38","4575"
"A2CY1G4VJV3G85","caus_thomas_fire_v5","3G2UL9A02DFGTLVC9YK77SAAHQR67F","6","9","0","Yes","1","1","3302","2017-10-16 16:09:39","4576"
"A26EZ702FBTS56","caus_thomas_fire_v5","3ZY8KE4ISJ4BETFS651LJB74399QVN","6","7","0","No","1","0","4798","2017-10-16 16:09:39","4577"
"A1L2N1X8U8Z3W7","caus_thomas_fire_v5","35LDD5557A56D3NOF8GX0TCIDA6MKB","1","1","0","Yes","1","1","3503","2017-10-16 16:09:39","4578"
"A2UVD05SNXJBTF","caus_thomas_fire_v5","39GAF6DQWR1NXPVBLQB6IAZWVXI1V4","6","3","0","Yes","1","0","3860","2017-10-16 16:09:39","4579"
"AS3YLN1NMQ3T9","caus_thomas_fire_v5","3VNXK88KKCJ5MUY6P3QZXGHFT95V96","8","9","0","No","1","0","5842","2017-10-16 16:09:40","4580"
"A6VQ0UN0ETESM","caus_thomas_fire_v5","3Z9WI9EOZZPKLPMDOB0K8O4MWO6KHZ","6","4","0","Yes","1","0","5063","2017-10-16 16:09:40","4581"
"A26SF9CTNKKBYB","caus_thomas_fire_v5","3S96KQ6I9M52CS7YWOVMIUCKN95DTQ","8","8","0","No","1","0","2313","2017-10-16 16:09:40","4582"
"A389LTO1Q8DAKN","caus_thomas_fire_v5","3WMOAN2SRBYQBW20QD94FHCZYYMNVX","8","0","0","Yes","1","0","7463","2017-10-16 16:09:40","4583"
"A39ROW50DWRRKT","caus_thomas_fire_v5","3ON104KXQKXH4DSZYIZ42APDEQTW4L","3","8","0","Yes","1","1","4960","2017-10-16 16:09:41","4584"
"A0657006AJFWB5ZA91B2","caus_thomas_fire_v5","354GIDR5ZB77XZ9DMAJHJCQWW9Z008","4","7","0","Yes","1","1","5544","2017-10-16 16:09:41","4585"
"A3JGW4RGO86NPX","caus_thomas_fire_v5","32AT8R96GLANEU55TJGLIPKM7QLSUP","9","0","0","Yes","1","1","5421","2017-10-16 16:09:41","4586"
"A36W1S4Z2LSNTC","caus_thomas_fire_v5","3LO69W1SU3EH5Z9KP5U32O506OZGL0","3","1","0","Yes","1","0","2086","2017-10-16 16:09:42","4587"
"AWDU600NXZ26L","caus_thomas_fire_v5","32EYX73OY0ABDF5SEUGGSFFQLO2UR3","6","0","0","Yes","1","1","4772","2017-10-16 16:09:42","4588"
"A2B6PP2KXD19N6","caus_thomas_fire_v5","3R5F3LQFV2LP217MSPYKFCP0CJXZOO","6","8","0","No","1","1","2605","2017-10-16 16:09:42","4589"
"A1SHLCA57M79E6","caus_thomas_fire_v5","3ZGVPD4G6TI5FTCUO6KJ9MVNBRETZ4","1","4","0","Yes","1","1","4174","2017-10-16 16:09:42","4590"
"A2K7AVZWEC9B14","caus_thomas_fire_v5","3LO69W1SU3EH5Z9KP5U32O506OYLG4","0","9","0","Yes","1","0","5799","2017-10-16 16:09:42","4591"
"A2EBNMFLUR2SQF","caus_thomas_fire_v5","3LWJHTCVCCNMIWT26QWH1P4IFFLQFZ","0","8","0","No","1","0","4109","2017-10-16 16:09:42","4592"
"A2P5IL629E7EC8","caus_thomas_fire_v5","326O153BMIZ0N9P16T6RJ8CJKZIED1","0","6","0","No","1","1","6998","2017-10-16 16:09:42","4593"
"AKY00Z7IB63UV","caus_thomas_fire_v5","3YGXWBAF70I8QFMUHRZ3QGIAMAC4CL","5","9","0","No","1","1","3332","2017-10-16 16:09:42","4594"
"A1WPXQWFALCA65","caus_thomas_fire_v5","3MAOD8E57QBIFL7VQSAM329KE9UNX0","9","3","0","Yes","1","0","7390","2017-10-16 16:09:42","4595"
"A1EJS3MIGVI4M6","caus_thomas_fire_v5","3QAPZX2QN4EET9CR1XNV20JBT7J02S","6","0","0","Yes","1","0","9968","2017-10-16 16:09:42","4596"
"A24ZAX5O63WVNI","caus_thomas_fire_v5","34Z02EIMISE8D864KC7R3NS1TKVT0C","7","0","0","Yes","1","0","4309","2017-10-16 16:09:43","4597"
"A389LTO1Q8DAKN","caus_thomas_fire_v5","3WMOAN2SRBYQBW20QD94FHCZYYMNVX","9","5","0","No","1","0","2305","2017-10-16 16:09:43","4598"
"A2CY1G4VJV3G85","caus_thomas_fire_v5","3G2UL9A02DFGTLVC9YK77SAAHQR67F","7","8","0","Yes","1","1","3560","2017-10-16 16:09:44","4599"
"A18VPS125O9ZE4","caus_thomas_fire_v5","3X0H8UUIT1P06YUAOJVM0D5JS6WSWO","2","1","0","Yes","1","0","6985","2017-10-16 16:09:44","4600"
"A2FOOQ0376XKCO","caus_thomas_fire_v5","3X3OR7WPZZ12CK3267IFABO2I5M8LC","5","2","0","No","1","1","5074","2017-10-16 16:09:44","4601"
"A3QN9B9ZS1CWWM","caus_thomas_fire_v5","3U4J9857OECMZXC75P1FI8W2VR2B75","2","5","0","No","1","0","4675","2017-10-16 16:09:44","4602"
"A1BAEFJ2OG7NJ0","caus_thomas_fire_v5","3TMFV4NEP8FINEF1ALPHJM5IGCPW8S","0","9","0","Yes","1","1","7139","2017-10-16 16:09:44","4603"
"A2UVD05SNXJBTF","caus_thomas_fire_v5","39GAF6DQWR1NXPVBLQB6IAZWVXI1V4","7","8","0","Yes","1","0","3523","2017-10-16 16:09:44","4604"
"A2UKVP21FXQ5BA
","caus_thomas_fire_v5","33LKR6A5KEL8KXRMGVBRHSBBYC21TO","1","5","0","No","1","0","9493","2017-10-16 16:09:44","4605"
"A26EZ702FBTS56","caus_thomas_fire_v5","3ZY8KE4ISJ4BETFS651LJB74399QVN","7","9","0","No","1","0","3991","2017-10-16 16:09:44","4606"
"A36W1S4Z2LSNTC","caus_thomas_fire_v5","3LO69W1SU3EH5Z9KP5U32O506OZGL0","4","7","0","Yes","1","0","1955","2017-10-16 16:09:44","4607"
"A1L2N1X8U8Z3W7","caus_thomas_fire_v5","35LDD5557A56D3NOF8GX0TCIDA6MKB","2","8","0","Yes","1","1","4301","2017-10-16 16:09:45","4608"
"A26SF9CTNKKBYB","caus_thomas_fire_v5","3S96KQ6I9M52CS7YWOVMIUCKN95DTQ","9","5","0","No","1","0","3722","2017-10-16 16:09:45","4609"
"AS3YLN1NMQ3T9","caus_thomas_fire_v5","3VNXK88KKCJ5MUY6P3QZXGHFT95V96","9","0","0","Yes","1","0","4332","2017-10-16 16:09:45","4610"
"A39ROW50DWRRKT","caus_thomas_fire_v5","3ON104KXQKXH4DSZYIZ42APDEQTW4L","4","4","0","Yes","1","1","3385","2017-10-16 16:09:45","4611"
"A1153ONO49N24LO","caus_thomas_fire_v5","3ITXP059PWKE0EUBHKC7BNBBQANSJT","5","2","0","No","1","1","6822","2017-10-16 16:09:46","4612"
" AOTUGFGVVZMSQ","caus_thomas_fire_v5","38JBBYETQOBNND68DI5YG4ID7MP4EE","5","1","0","Yes","1","1","6930","2017-10-16 16:09:46","4613"
"AKY00Z7IB63UV","caus_thomas_fire_v5","3YGXWBAF70I8QFMUHRZ3QGIAMAC4CL","6","7","0","No","1","1","2805","2017-10-16 16:09:46","4614"
"A6VQ0UN0ETESM","caus_thomas_fire_v5","3Z9WI9EOZZPKLPMDOB0K8O4MWO6KHZ","7","6","0","Yes","1","0","5607","2017-10-16 16:09:46","4615"
"A24DSECWUBZC0Z","caus_thomas_fire_v5","3BEFOD78W6ULZ1YLUGTHTCNMGOG4M3","0","2","0","No","1","0","5982","2017-10-16 16:09:47","4616"
"A2CY1G4VJV3G85","caus_thomas_fire_v5","3G2UL9A02DFGTLVC9YK77SAAHQR67F","8","5","0","Yes","1","1","1855","2017-10-16 16:09:47","4617"
"A0657006AJFWB5ZA91B2","caus_thomas_fire_v5","354GIDR5ZB77XZ9DMAJHJCQWW9Z008","5","9","0","Yes","1","1","4875","2017-10-16 16:09:47","4618"
"A2B6PP2KXD19N6","caus_thomas_fire_v5","3R5F3LQFV2LP217MSPYKFCP0CJXZOO","7","2","0","No","1","1","4315","2017-10-16 16:09:47","4619"
"A2EBNMFLUR2SQF","caus_thomas_fire_v5","3LWJHTCVCCNMIWT26QWH1P4IFFLQFZ","1","0","0","Yes","1","0","4244","2017-10-16 16:09:47","4620"
"A1L2N1X8U8Z3W7","caus_thomas_fire_v5","35LDD5557A56D3NOF8GX0TCIDA6MKB","3","9","0","Yes","1","1","2021","2017-10-16 16:09:48","4621"
"A24ZAX5O63WVNI","caus_thomas_fire_v5","34Z02EIMISE8D864KC7R3NS1TKVT0C","8","5","0","Yes","1","0","4103","2017-10-16 16:09:48","4622"
"A2UVD05SNXJBTF","caus_thomas_fire_v5","39GAF6DQWR1NXPVBLQB6IAZWVXI1V4","8","7","0","Yes","1","0","2981","2017-10-16 16:09:48","4623"
"AWDU600NXZ26L","caus_thomas_fire_v5","32EYX73OY0ABDF5SEUGGSFFQLO2UR3","7","3","0","Yes","1","1","5429","2017-10-16 16:09:48","4624"
"A1SHLCA57M79E6","caus_thomas_fire_v5","3ZGVPD4G6TI5FTCUO6KJ9MVNBRETZ4","2","0","0","Yes","1","1","5713","2017-10-16 16:09:48","4625"
"A2FOOQ0376XKCO","caus_thomas_fire_v5","3X3OR7WPZZ12CK3267IFABO2I5M8LC","6","4","0","Yes","1","1","3944","2017-10-16 16:09:49","4626"
"A3PV8HAHROZ3RY","caus_thomas_fire_v5","32KTQ2V7RDGMW74XBBP8AKY22GU9M4","0","5","0","No","1","0","4204","2017-10-16 16:09:49","4627"
"A26EZ702FBTS56","caus_thomas_fire_v5","3ZY8KE4ISJ4BETFS651LJB74399QVN","8","8","0","No","1","0","3807","2017-10-16 16:09:49","4628"
"A36W1S4Z2LSNTC","caus_thomas_fire_v5","3LO69W1SU3EH5Z9KP5U32O506OZGL0","5","2","0","No","1","0","3782","2017-10-16 16:09:49","4629"
"A2K7AVZWEC9B14","caus_thomas_fire_v5","3LO69W1SU3EH5Z9KP5U32O506OYLG4","1","0","0","Yes","1","0","6448","2017-10-16 16:09:49","4630"
"A30R3WV69IZX6I","caus_thomas_fire_v5","30LB5CDZNCB4ZKF3Q4W9PBTIEGI0Z0","2","5","0","No","1","0","11386","2017-10-16 16:09:49","4631"
"A18VPS125O9ZE4","caus_thomas_fire_v5","3X0H8UUIT1P06YUAOJVM0D5JS6WSWO","3","5","0","No","1","0","4915","2017-10-16 16:09:50","4632"
"A1153ONO49N24LO","caus_thomas_fire_v5","3ITXP059PWKE0EUBHKC7BNBBQANSJT","6","9","0","Yes","1","1","2937","2017-10-16 16:09:50","4633"
"A3QN9B9ZS1CWWM","caus_thomas_fire_v5","3U4J9857OECMZXC75P1FI8W2VR2B75","3","7","0","No","1","0","4487","2017-10-16 16:09:50","4634"
"AKY00Z7IB63UV","caus_thomas_fire_v5","3YGXWBAF70I8QFMUHRZ3QGIAMAC4CL","7","3","0","Yes","1","1","2565","2017-10-16 16:09:50","4635"
"A2P5IL629E7EC8","caus_thomas_fire_v5","326O153BMIZ0N9P16T6RJ8CJKZIED1","1","7","0","No","1","1","7176","2017-10-16 16:09:50","4636"
"A2B6PP2KXD19N6","caus_thomas_fire_v5","3R5F3LQFV2LP217MSPYKFCP0CJXZOO","8","4","0","No","1","1","2331","2017-10-16 16:09:50","4637"
"A1EJS3MIGVI4M6","caus_thomas_fire_v5","3QAPZX2QN4EET9CR1XNV20JBT7J02S","7","2","0","No","1","0","6827","2017-10-16 16:09:50","4638"
"A2EBNMFLUR2SQF","caus_thomas_fire_v5","3LWJHTCVCCNMIWT26QWH1P4IFFLQFZ","2","7","0","No","1","0","2970","2017-10-16 16:09:51","4639"
"A39ROW50DWRRKT","caus_thomas_fire_v5","3ON104KXQKXH4DSZYIZ42APDEQTW4L","5","9","0","Yes","1","1","4945","2017-10-16 16:09:51","4640"
"A0657006AJFWB5ZA91B2","caus_thomas_fire_v5","354GIDR5ZB77XZ9DMAJHJCQWW9Z008","6","2","0","No","1","1","3865","2017-10-16 16:09:52","4641"
"A1L2N1X8U8Z3W7","caus_thomas_fire_v5","35LDD5557A56D3NOF8GX0TCIDA6MKB","4","0","0","Yes","1","1","3324","2017-10-16 16:09:52","4642"
"A2CY1G4VJV3G85","caus_thomas_fire_v5","3G2UL9A02DFGTLVC9YK77SAAHQR67F","9","3","0","Yes","1","1","4521","2017-10-16 16:09:52","4643"
"A1BAEFJ2OG7NJ0","caus_thomas_fire_v5","3TMFV4NEP8FINEF1ALPHJM5IGCPW8S","1","0","0","Yes","1","1","7342","2017-10-16 16:09:52","4644"
" AOTUGFGVVZMSQ","caus_thomas_fire_v5","38JBBYETQOBNND68DI5YG4ID7MP4EE","6","2","0","No","1","1","5466","2017-10-16 16:09:53","4646"
"A24ZAX5O63WVNI","caus_thomas_fire_v5","34Z02EIMISE8D864KC7R3NS1TKVT0C","9","8","0","Yes","1","0","3833","2017-10-16 16:09:53","4645"
"A36W1S4Z2LSNTC","caus_thomas_fire_v5","3LO69W1SU3EH5Z9KP5U32O506OZGL0","6","0","0","Yes","1","0","2284","2017-10-16 16:09:53","4647"
"A2UKVP21FXQ5BA
","caus_thomas_fire_v5","33LKR6A5KEL8KXRMGVBRHSBBYC21TO","2","4","0","No","1","0","7664","2017-10-16 16:09:53","4648"
"AWDU600NXZ26L","caus_thomas_fire_v5","32EYX73OY0ABDF5SEUGGSFFQLO2UR3","8","9","0","Yes","1","1","3894","2017-10-16 16:09:53","4649"
"A24DSECWUBZC0Z","caus_thomas_fire_v5","3BEFOD78W6ULZ1YLUGTHTCNMGOG4M3","1","1","0","Yes","1","0","5454","2017-10-16 16:09:53","4650"
"A6VQ0UN0ETESM","caus_thomas_fire_v5","3Z9WI9EOZZPKLPMDOB0K8O4MWO6KHZ","8","7","0","Yes","1","0","5625","2017-10-16 16:09:53","4651"
"A26EZ702FBTS56","caus_thomas_fire_v5","3ZY8KE4ISJ4BETFS651LJB74399QVN","9","5","0","No","1","0","3111","2017-10-16 16:09:53","4652"
"A2UVD05SNXJBTF","caus_thomas_fire_v5","39GAF6DQWR1NXPVBLQB6IAZWVXI1V4","9","4","0","Yes","1","0","4616","2017-10-16 16:09:54","4653"
"A2FOOQ0376XKCO","caus_thomas_fire_v5","3X3OR7WPZZ12CK3267IFABO2I5M8LC","7","8","0","Yes","1","1","3822","2017-10-16 16:09:54","4654"
"A18VPS125O9ZE4","caus_thomas_fire_v5","3X0H8UUIT1P06YUAOJVM0D5JS6WSWO","4","7","0","No","1","0","3103","2017-10-16 16:09:54","4655"
"A1R37XA9QPSIAN","caus_thomas_fire_v5","30BUDKLTXDW5JWA8RNO8LWOR7IKE5T","0","4","0","No","1","1","11560","2017-10-16 16:09:54","4656"
"A2UGM73EHLK6XI","caus_thomas_fire_v5","324G5B4FB39LFA9X794QYR0J4N570F","0","0","0","Yes","1","0","7192","2017-10-16 16:09:54","4657"
"AKY00Z7IB63UV","caus_thomas_fire_v5","3YGXWBAF70I8QFMUHRZ3QGIAMAC4CL","8","6","0","No","1","1","3213","2017-10-16 16:09:54","4658"
"A2P5IL629E7EC8","caus_thomas_fire_v5","326O153BMIZ0N9P16T6RJ8CJKZIED1","2","1","0","Yes","1","1","3303","2017-10-16 16:09:55","4659"
"A39ROW50DWRRKT","caus_thomas_fire_v5","3ON104KXQKXH4DSZYIZ42APDEQTW4L","6","7","0","Yes","1","1","2698","2017-10-16 16:09:55","4660"
"A2HIPDBIQTFGAX","caus_thomas_fire_v5","374TNBHA8BWSINAXBGO5QABYLQBYQ4","0","0","0","No","0","1","8025","2017-10-16 16:09:55","4661"
"A1153ONO49N24LO","caus_thomas_fire_v5","3ITXP059PWKE0EUBHKC7BNBBQANSJT","7","0","0","Yes","1","1","4731","2017-10-16 16:09:55","4662"
"A1SHLCA57M79E6","caus_thomas_fire_v5","3ZGVPD4G6TI5FTCUO6KJ9MVNBRETZ4","3","1","0","Yes","1","1","6036","2017-10-16 16:09:55","4663"
"A36W1S4Z2LSNTC","caus_thomas_fire_v5","3LO69W1SU3EH5Z9KP5U32O506OZGL0","7","6","0","Yes","1","0","2221","2017-10-16 16:09:56","4664"
"A1L2N1X8U8Z3W7","caus_thomas_fire_v5","35LDD5557A56D3NOF8GX0TCIDA6MKB","5","2","0","No","1","1","2952","2017-10-16 16:09:56","4665"
"A3QN9B9ZS1CWWM","caus_thomas_fire_v5","3U4J9857OECMZXC75P1FI8W2VR2B75","4","4","0","No","1","0","5680","2017-10-16 16:09:56","4666"
" A3QYQSFE594CV6
","caus_thomas_fire_v5","3L0KT67Y8EH4V3PA3KDALAQZ3EWYST","0","5","0","Yes","1","0","8765","2017-10-16 16:09:56","4667"
"A2K7AVZWEC9B14","caus_thomas_fire_v5","3LO69W1SU3EH5Z9KP5U32O506OYLG4","2","7","0","Yes","1","0","6202","2017-10-16 16:09:57","4668"
"A0657006AJFWB5ZA91B2","caus_thomas_fire_v5","354GIDR5ZB77XZ9DMAJHJCQWW9Z008","7","5","0","Yes","1","1","3922","2017-10-16 16:09:57","4669"
"A1EJS3MIGVI4M6","caus_thomas_fire_v5","3QAPZX2QN4EET9CR1XNV20JBT7J02S","8","4","0","No","1","0","5255","2017-10-16 16:09:57","4670"
"A30R3WV69IZX6I","caus_thomas_fire_v5","30LB5CDZNCB4ZKF3Q4W9PBTIEGI0Z0","3","4","0","No","1","0","6148","2017-10-16 16:09:57","4671"
"A3445FTO62DGIX","caus_thomas_fire_v5","3TE22NPXPBD5VB9FOCTL7I6MUXV448","0","0","0","Yes","1","0","9973","2017-10-16 16:09:57","4672"
" AOTUGFGVVZMSQ","caus_thomas_fire_v5","38JBBYETQOBNND68DI5YG4ID7MP4EE","7","7","0","Yes","1","1","4421","2017-10-16 16:09:58","4673"
"A2EBNMFLUR2SQF","caus_thomas_fire_v5","3LWJHTCVCCNMIWT26QWH1P4IFFLQFZ","3","9","0","No","1","0","6030","2017-10-16 16:09:58","4674"
"A36W1S4Z2LSNTC","caus_thomas_fire_v5","3LO69W1SU3EH5Z9KP5U32O506OZGL0","8","4","0","Yes","1","0","1500","2017-10-16 16:09:58","4675"
"A2P5IL629E7EC8","caus_thomas_fire_v5","326O153BMIZ0N9P16T6RJ8CJKZIED1","3","8","0","No","1","1","2870","2017-10-16 16:09:58","4676"
"AKY00Z7IB63UV","caus_thomas_fire_v5","3YGXWBAF70I8QFMUHRZ3QGIAMAC4CL","9","4","0","No","1","1","3445","2017-10-16 16:09:58","4677"
"A24DSECWUBZC0Z","caus_thomas_fire_v5","3BEFOD78W6ULZ1YLUGTHTCNMGOG4M3","2","5","0","No","1","0","4513","2017-10-16 16:09:58","4678"
"A18VPS125O9ZE4","caus_thomas_fire_v5","3X0H8UUIT1P06YUAOJVM0D5JS6WSWO","5","9","0","No","1","0","3891","2017-10-16 16:09:59","4679"
"A3PV8HAHROZ3RY","caus_thomas_fire_v5","32KTQ2V7RDGMW74XBBP8AKY22GU9M4","1","4","0","No","1","0","9019","2017-10-16 16:09:59","4680"
"A1L2N1X8U8Z3W7","caus_thomas_fire_v5","35LDD5557A56D3NOF8GX0TCIDA6MKB","6","5","0","Yes","1","1","2128","2017-10-16 16:09:59","4681"
"ADA0ASXIKB9C2","caus_thomas_fire_v5","39L1G8WVWQS3LGTS1G50ZF7D4DP319","0","1","0","Yes","1","0","7812","2017-10-16 16:09:59","4682"
"A1153ONO49N24LO","caus_thomas_fire_v5","3ITXP059PWKE0EUBHKC7BNBBQANSJT","8","4","0","Yes","1","1","2965","2017-10-16 16:09:59","4683"
"A25NRZFFVPNH1B","caus_thomas_fire_v5","3R2PKQ87NW9F78X0F5VLNDX5L6HMI0","0","6","0","No","1","0","4833","2017-10-16 16:10:00","4684"
"A1BAEFJ2OG7NJ0","caus_thomas_fire_v5","3TMFV4NEP8FINEF1ALPHJM5IGCPW8S","2","1","0","Yes","1","1","6509","2017-10-16 16:10:00","4685"
"A6VQ0UN0ETESM","caus_thomas_fire_v5","3Z9WI9EOZZPKLPMDOB0K8O4MWO6KHZ","9","8","0","Yes","1","0","5879","2017-10-16 16:10:00","4686"
"A1SHLCA57M79E6","caus_thomas_fire_v5","3ZGVPD4G6TI5FTCUO6KJ9MVNBRETZ4","4","2","0","No","1","1","3703","2017-10-16 16:10:00","4687"
"A2UKVP21FXQ5BA
","caus_thomas_fire_v5","33LKR6A5KEL8KXRMGVBRHSBBYC21TO","3","7","0","No","1","0","6410","2017-10-16 16:10:00","4688"
"A0657006AJFWB5ZA91B2","caus_thomas_fire_v5","354GIDR5ZB77XZ9DMAJHJCQWW9Z008","8","6","0","Yes","1","1","2715","2017-10-16 16:10:00","4689"
"A1R37XA9QPSIAN","caus_thomas_fire_v5","30BUDKLTXDW5JWA8RNO8LWOR7IKE5T","1","5","0","No","1","1","5624","2017-10-16 16:10:00","4690"
"A39ROW50DWRRKT","caus_thomas_fire_v5","3ON104KXQKXH4DSZYIZ42APDEQTW4L","7","3","0","Yes","1","1","4579","2017-10-16 16:10:00","4691"
"A2FOOQ0376XKCO","caus_thomas_fire_v5","3X3OR7WPZZ12CK3267IFABO2I5M8LC","8","3","0","Yes","1","1","5818","2017-10-16 16:10:01","4692"
"A2HIPDBIQTFGAX","caus_thomas_fire_v5","374TNBHA8BWSINAXBGO5QABYLQBYQ4","1","2","0","No","1","1","4758","2017-10-16 16:10:01","4693"
"A2UGM73EHLK6XI","caus_thomas_fire_v5","324G5B4FB39LFA9X794QYR0J4N570F","1","7","0","Yes","1","0","5951","2017-10-16 16:10:01","4694"
"AWDU600NXZ26L","caus_thomas_fire_v5","32EYX73OY0ABDF5SEUGGSFFQLO2UR3","9","4","0","Yes","1","1","6462","2017-10-16 16:10:01","4695"
"A1L2N1X8U8Z3W7","caus_thomas_fire_v5","35LDD5557A56D3NOF8GX0TCIDA6MKB","7","7","0","Yes","1","1","1562","2017-10-16 16:10:02","4696"
"A1153ONO49N24LO","caus_thomas_fire_v5","3ITXP059PWKE0EUBHKC7BNBBQANSJT","9","1","0","Yes","1","1","1655","2017-10-16 16:10:02","4697"
"A2EBNMFLUR2SQF","caus_thomas_fire_v5","3LWJHTCVCCNMIWT26QWH1P4IFFLQFZ","4","4","0","No","1","0","2961","2017-10-16 16:10:02","4698"
"A3QN9B9ZS1CWWM","caus_thomas_fire_v5","3U4J9857OECMZXC75P1FI8W2VR2B75","5","3","0","Yes","1","0","5034","2017-10-16 16:10:02","4699"
"A2P5IL629E7EC8","caus_thomas_fire_v5","326O153BMIZ0N9P16T6RJ8CJKZIED1","4","3","0","Yes","1","1","3198","2017-10-16 16:10:03","4700"
"A30R3WV69IZX6I","caus_thomas_fire_v5","30LB5CDZNCB4ZKF3Q4W9PBTIEGI0Z0","4","3","0","Yes","1","0","4836","2017-10-16 16:10:03","4701"
"A36W1S4Z2LSNTC","caus_thomas_fire_v5","3LO69W1SU3EH5Z9KP5U32O506OZGL0","9","3","0","Yes","1","0","3726","2017-10-16 16:10:03","4702"
"A1QUBLZCONL4QD","caus_thomas_fire_v5","3S0TNUHWKTJJE8FATQKRRYGX9WK8DW","0","4","0","Yes","1","1","27620","2017-10-16 16:10:03","4703"
"A2B6PP2KXD19N6","caus_thomas_fire_v5","3R5F3LQFV2LP217MSPYKFCP0CJXZOO","9","5","0","No","1","1","12229","2017-10-16 16:10:04","4704"
"A3445FTO62DGIX","caus_thomas_fire_v5","3TE22NPXPBD5VB9FOCTL7I6MUXV448","1","3","0","Yes","1","0","5656","2017-10-16 16:10:04","4705"
" AOTUGFGVVZMSQ","caus_thomas_fire_v5","38JBBYETQOBNND68DI5YG4ID7MP4EE","8","9","0","Yes","1","1","4721","2017-10-16 16:10:04","4706"
"A1SHLCA57M79E6","caus_thomas_fire_v5","3ZGVPD4G6TI5FTCUO6KJ9MVNBRETZ4","5","9","0","Yes","1","1","2728","2017-10-16 16:10:04","4707"
"A3PV8HAHROZ3RY","caus_thomas_fire_v5","32KTQ2V7RDGMW74XBBP8AKY22GU9M4","2","9","0","No","1","0","4115","2017-10-16 16:10:04","4708"
"A24DSECWUBZC0Z","caus_thomas_fire_v5","3BEFOD78W6ULZ1YLUGTHTCNMGOG4M3","3","8","0","No","1","0","4578","2017-10-16 16:10:04","4709"
" A3QYQSFE594CV6
","caus_thomas_fire_v5","3L0KT67Y8EH4V3PA3KDALAQZ3EWYST","1","1","0","Yes","1","0","6970","2017-10-16 16:10:04","4710"
"A1L2N1X8U8Z3W7","caus_thomas_fire_v5","35LDD5557A56D3NOF8GX0TCIDA6MKB","8","6","0","Yes","1","1","2005","2017-10-16 16:10:05","4711"
"A39ROW50DWRRKT","caus_thomas_fire_v5","3ON104KXQKXH4DSZYIZ42APDEQTW4L","8","6","0","Yes","1","1","3304","2017-10-16 16:10:05","4712"
"A2FOOQ0376XKCO","caus_thomas_fire_v5","3X3OR7WPZZ12CK3267IFABO2I5M8LC","9","9","0","Yes","1","1","3193","2017-10-16 16:10:05","4713"
"AK9XE112RZO6Q","caus_thomas_fire_v5","3NQL1CS15R9KNV6EXFIFWXA62IQYVY","0","2","0","No","1","1","3840","2017-10-16 16:10:05","4714"
"A0657006AJFWB5ZA91B2","caus_thomas_fire_v5","354GIDR5ZB77XZ9DMAJHJCQWW9Z008","9","4","0","Yes","1","1","3711","2017-10-16 16:10:05","4715"
"A25NRZFFVPNH1B","caus_thomas_fire_v5","3R2PKQ87NW9F78X0F5VLNDX5L6HMI0","1","0","0","Yes","1","0","4143","2017-10-16 16:10:05","4716"
"A2HIPDBIQTFGAX","caus_thomas_fire_v5","374TNBHA8BWSINAXBGO5QABYLQBYQ4","2","4","0","No","1","1","3893","2017-10-16 16:10:06","4717"
"A18VPS125O9ZE4","caus_thomas_fire_v5","3X0H8UUIT1P06YUAOJVM0D5JS6WSWO","6","3","0","Yes","1","0","6050","2017-10-16 16:10:06","4718"
"A1EJS3MIGVI4M6","caus_thomas_fire_v5","3QAPZX2QN4EET9CR1XNV20JBT7J02S","9","3","0","No","0","0","8311","2017-10-16 16:10:06","4719"
"A1BAEFJ2OG7NJ0","caus_thomas_fire_v5","3TMFV4NEP8FINEF1ALPHJM5IGCPW8S","3","2","0","No","1","1","5328","2017-10-16 16:10:06","4720"
"A1L2N1X8U8Z3W7","caus_thomas_fire_v5","35LDD5557A56D3NOF8GX0TCIDA6MKB","9","4","0","Yes","1","1","1319","2017-10-16 16:10:07","4721"
"A2K7AVZWEC9B14","caus_thomas_fire_v5","3LO69W1SU3EH5Z9KP5U32O506OYLG4","3","3","0","Yes","1","0","8812","2017-10-16 16:10:07","4722"
"A1SHLCA57M79E6","caus_thomas_fire_v5","3ZGVPD4G6TI5FTCUO6KJ9MVNBRETZ4","6","6","0","Yes","1","1","2366","2017-10-16 16:10:07","4723"
" AOTUGFGVVZMSQ","caus_thomas_fire_v5","38JBBYETQOBNND68DI5YG4ID7MP4EE","9","4","0","Yes","1","1","2857","2017-10-16 16:10:08","4724"
"A2EBNMFLUR2SQF","caus_thomas_fire_v5","3LWJHTCVCCNMIWT26QWH1P4IFFLQFZ","5","6","0","No","1","0","4687","2017-10-16 16:10:08","4725"
"ADA0ASXIKB9C2","caus_thomas_fire_v5","39L1G8WVWQS3LGTS1G50ZF7D4DP319","1","2","0","No","1","0","7680","2017-10-16 16:10:08","4726"
"A2UGM73EHLK6XI","caus_thomas_fire_v5","324G5B4FB39LFA9X794QYR0J4N570F","2","5","0","Yes","1","0","6029","2017-10-16 16:10:08","4727"
"A2P5IL629E7EC8","caus_thomas_fire_v5","326O153BMIZ0N9P16T6RJ8CJKZIED1","5","0","0","Yes","1","1","4429","2017-10-16 16:10:08","4728"
"A3QN9B9ZS1CWWM","caus_thomas_fire_v5","3U4J9857OECMZXC75P1FI8W2VR2B75","6","6","0","No","1","0","5030","2017-10-16 16:10:08","4729"
"A1R37XA9QPSIAN","caus_thomas_fire_v5","30BUDKLTXDW5JWA8RNO8LWOR7IKE5T","2","7","0","No","1","1","6669","2017-10-16 16:10:08","4730"
"A24DSECWUBZC0Z","caus_thomas_fire_v5","3BEFOD78W6ULZ1YLUGTHTCNMGOG4M3","4","0","0","Yes","1","0","3786","2017-10-16 16:10:09","4731"
"AK9XE112RZO6Q","caus_thomas_fire_v5","3NQL1CS15R9KNV6EXFIFWXA62IQYVY","1","7","0","No","1","1","2878","2017-10-16 16:10:09","4732"
"A2UKVP21FXQ5BA
","caus_thomas_fire_v5","33LKR6A5KEL8KXRMGVBRHSBBYC21TO","4","1","0","Yes","1","0","8008","2017-10-16 16:10:09","4733"
"A39ROW50DWRRKT","caus_thomas_fire_v5","3ON104KXQKXH4DSZYIZ42APDEQTW4L","9","0","0","Yes","1","1","3914","2017-10-16 16:10:10","4734"
"A3PV8HAHROZ3RY","caus_thomas_fire_v5","32KTQ2V7RDGMW74XBBP8AKY22GU9M4","3","2","0","No","1","0","4925","2017-10-16 16:10:10","4735"
"A18VPS125O9ZE4","caus_thomas_fire_v5","3X0H8UUIT1P06YUAOJVM0D5JS6WSWO","7","4","0","No","1","0","3277","2017-10-16 16:10:10","4736"
"A3445FTO62DGIX","caus_thomas_fire_v5","3TE22NPXPBD5VB9FOCTL7I6MUXV448","2","2","0","No","1","0","5198","2017-10-16 16:10:10","4737"
"A30R3WV69IZX6I","caus_thomas_fire_v5","30LB5CDZNCB4ZKF3Q4W9PBTIEGI0Z0","5","2","0","No","1","0","6426","2017-10-16 16:10:10","4738"
"A25NRZFFVPNH1B","caus_thomas_fire_v5","3R2PKQ87NW9F78X0F5VLNDX5L6HMI0","2","7","0","No","1","0","4056","2017-10-16 16:10:10","4739"
"A1ESYH06VN3H8U","caus_thomas_fire_v5","3TR2532VIPV9DGWEA794AIFJ8LR6JM","0","4","0","Yes","1","1","6797","2017-10-16 16:10:10","4740"
"A2HIPDBIQTFGAX","caus_thomas_fire_v5","374TNBHA8BWSINAXBGO5QABYLQBYQ4","3","7","0","No","1","1","3987","2017-10-16 16:10:11","4741"
"A26XF8O4XRL8JA
","caus_thomas_fire_v5","3SB4CE2TJVWBV2D6HO5HHWPKF2WAX4","0","9","0","Yes","1","0","8113","2017-10-16 16:10:12","4742"
"A2EBNMFLUR2SQF","caus_thomas_fire_v5","3LWJHTCVCCNMIWT26QWH1P4IFFLQFZ","6","3","0","Yes","1","0","3244","2017-10-16 16:10:12","4743"
" A3QYQSFE594CV6
","caus_thomas_fire_v5","3L0KT67Y8EH4V3PA3KDALAQZ3EWYST","2","0","0","No","0","0","6941","2017-10-16 16:10:12","4744"
"A2P5IL629E7EC8","caus_thomas_fire_v5","326O153BMIZ0N9P16T6RJ8CJKZIED1","6","4","0","No","1","1","3159","2017-10-16 16:10:12","4745"
"ASXN1TE7TSOMU","caus_thomas_fire_v5","34PGFRQONOC77VBK1PM88CEWWNJWJC","0","8","0","No","1","1","12390","2017-10-16 16:10:13","4746"
"A2K7AVZWEC9B14","caus_thomas_fire_v5","3LO69W1SU3EH5Z9KP5U32O506OYLG4","4","5","0","Yes","1","0","5005","2017-10-16 16:10:13","4747"
"A3QN9B9ZS1CWWM","caus_thomas_fire_v5","3U4J9857OECMZXC75P1FI8W2VR2B75","7","9","0","No","1","0","4450","2017-10-16 16:10:13","4748"
"A24DSECWUBZC0Z","caus_thomas_fire_v5","3BEFOD78W6ULZ1YLUGTHTCNMGOG4M3","5","3","0","Yes","1","0","3789","2017-10-16 16:10:14","4749"
"A1R37XA9QPSIAN","caus_thomas_fire_v5","30BUDKLTXDW5JWA8RNO8LWOR7IKE5T","3","0","0","Yes","1","1","4721","2017-10-16 16:10:14","4750"
"A2UKVP21FXQ5BA
","caus_thomas_fire_v5","33LKR6A5KEL8KXRMGVBRHSBBYC21TO","5","8","0","No","1","0","3556","2017-10-16 16:10:14","4751"
"A18VPS125O9ZE4","caus_thomas_fire_v5","3X0H8UUIT1P06YUAOJVM0D5JS6WSWO","8","0","0","Yes","1","0","2955","2017-10-16 16:10:14","4752"
"A1QUBLZCONL4QD","caus_thomas_fire_v5","3S0TNUHWKTJJE8FATQKRRYGX9WK8DW","1","5","0","Yes","1","1","10488","2017-10-16 16:10:15","4753"
"A25NRZFFVPNH1B","caus_thomas_fire_v5","3R2PKQ87NW9F78X0F5VLNDX5L6HMI0","3","3","0","Yes","1","0","3682","2017-10-16 16:10:15","4754"
"AK9XE112RZO6Q","caus_thomas_fire_v5","3NQL1CS15R9KNV6EXFIFWXA62IQYVY","2","9","0","No","1","1","4795","2017-10-16 16:10:15","4755"
"A2HIPDBIQTFGAX","caus_thomas_fire_v5","374TNBHA8BWSINAXBGO5QABYLQBYQ4","4","5","0","No","1","1","3574","2017-10-16 16:10:15","4756"
"ADA0ASXIKB9C2","caus_thomas_fire_v5","39L1G8WVWQS3LGTS1G50ZF7D4DP319","2","6","0","No","1","0","6740","2017-10-16 16:10:16","4757"
"A3PV8HAHROZ3RY","caus_thomas_fire_v5","32KTQ2V7RDGMW74XBBP8AKY22GU9M4","4","6","0","No","1","0","4917","2017-10-16 16:10:16","4758"
"A2UGM73EHLK6XI","caus_thomas_fire_v5","324G5B4FB39LFA9X794QYR0J4N570F","3","8","0","Yes","1","0","7127","2017-10-16 16:10:16","4759"
"A3445FTO62DGIX","caus_thomas_fire_v5","3TE22NPXPBD5VB9FOCTL7I6MUXV448","3","9","0","No","1","0","5152","2017-10-16 16:10:16","4760"
"A2P5IL629E7EC8","caus_thomas_fire_v5","326O153BMIZ0N9P16T6RJ8CJKZIED1","7","9","0",,"0","1","2992","2017-10-16 16:10:16","4761"
"A2EBNMFLUR2SQF","caus_thomas_fire_v5","3LWJHTCVCCNMIWT26QWH1P4IFFLQFZ","7","1","0","Yes","1","0","3271","2017-10-16 16:10:16","4762"
"A1SHLCA57M79E6","caus_thomas_fire_v5","3ZGVPD4G6TI5FTCUO6KJ9MVNBRETZ4","7","3","0","Yes","1","1","8302","2017-10-16 16:10:17","4763"
"A30R3WV69IZX6I","caus_thomas_fire_v5","30LB5CDZNCB4ZKF3Q4W9PBTIEGI0Z0","6","9","0","No","1","0","6129","2017-10-16 16:10:17","4764"
"A26XF8O4XRL8JA
","caus_thomas_fire_v5","3SB4CE2TJVWBV2D6HO5HHWPKF2WAX4","1","1","0","Yes","1","0","4314","2017-10-16 16:10:17","4765"
"A2HIPDBIQTFGAX","caus_thomas_fire_v5","374TNBHA8BWSINAXBGO5QABYLQBYQ4","5","8","0","No","1","1","1746","2017-10-16 16:10:18","4766"
"A3QN9B9ZS1CWWM","caus_thomas_fire_v5","3U4J9857OECMZXC75P1FI8W2VR2B75","8","2","0","No","1","0","3561","2017-10-16 16:10:18","4767"
"A24DSECWUBZC0Z","caus_thomas_fire_v5","3BEFOD78W6ULZ1YLUGTHTCNMGOG4M3","6","6","0","No","1","0","3429","2017-10-16 16:10:18","4768"
"A18VPS125O9ZE4","caus_thomas_fire_v5","3X0H8UUIT1P06YUAOJVM0D5JS6WSWO","9","8","0","No","1","0","3533","2017-10-16 16:10:18","4769"
"AK9XE112RZO6Q","caus_thomas_fire_v5","3NQL1CS15R9KNV6EXFIFWXA62IQYVY","3","1","0","Yes","1","1","2532","2017-10-16 16:10:19","4770"
"A1ESYH06VN3H8U","caus_thomas_fire_v5","3TR2532VIPV9DGWEA794AIFJ8LR6JM","1","6","0","Yes","1","1","7159","2017-10-16 16:10:19","4771"
"ASXN1TE7TSOMU","caus_thomas_fire_v5","34PGFRQONOC77VBK1PM88CEWWNJWJC","1","5","0","No","1","1","5928","2017-10-16 16:10:20","4772"
"A2UKVP21FXQ5BA
","caus_thomas_fire_v5","33LKR6A5KEL8KXRMGVBRHSBBYC21TO","6","3","0","Yes","1","0","5119","2017-10-16 16:10:20","4773"
"A2EBNMFLUR2SQF","caus_thomas_fire_v5","3LWJHTCVCCNMIWT26QWH1P4IFFLQFZ","8","5","0","No","1","0","2660","2017-10-16 16:10:20","4774"
"A2K7AVZWEC9B14","caus_thomas_fire_v5","3LO69W1SU3EH5Z9KP5U32O506OYLG4","5","1","0","Yes","1","0","6307","2017-10-16 16:10:20","4775"
"A1BAEFJ2OG7NJ0","caus_thomas_fire_v5","3TMFV4NEP8FINEF1ALPHJM5IGCPW8S","4","3","0","Yes","1","1","11700","2017-10-16 16:10:20","4776"
"A1R37XA9QPSIAN","caus_thomas_fire_v5","30BUDKLTXDW5JWA8RNO8LWOR7IKE5T","4","9","0","No","1","1","5474","2017-10-16 16:10:20","4777"
"A3O3RIY1ELZ6YR","caus_thomas_fire_v5","3Z2R0DQ0JHFDKZRL94MANPLFN8TE2S","0","0","0","Yes","1","1","6035","2017-10-16 16:10:21","4778"
"A3PV8HAHROZ3RY","caus_thomas_fire_v5","32KTQ2V7RDGMW74XBBP8AKY22GU9M4","5","0","0","Yes","1","0","4250","2017-10-16 16:10:21","4779"
"A2P5IL629E7EC8","caus_thomas_fire_v5","326O153BMIZ0N9P16T6RJ8CJKZIED1","8","5","0","No","1","1","3839","2017-10-16 16:10:21","4780"
"A25NRZFFVPNH1B","caus_thomas_fire_v5","3R2PKQ87NW9F78X0F5VLNDX5L6HMI0","4","4","0","No","1","0","5549","2017-10-16 16:10:21","4781"
"AK9XE112RZO6Q","caus_thomas_fire_v5","3NQL1CS15R9KNV6EXFIFWXA62IQYVY","4","6","0","No","1","1","2040","2017-10-16 16:10:21","4782"
"A1L00PO1P8D6E3","caus_thomas_fire_v5","3NXNZ5RS1AY3B4XA75NJR21C7RZ79R","0","3","0","Yes","1","1","9666","2017-10-16 16:10:22","4783"
"A26XF8O4XRL8JA
","caus_thomas_fire_v5","3SB4CE2TJVWBV2D6HO5HHWPKF2WAX4","2","7","0","Yes","1","0","3336","2017-10-16 16:10:22","4784"
"A2HIPDBIQTFGAX","caus_thomas_fire_v5","374TNBHA8BWSINAXBGO5QABYLQBYQ4","6","9","0","No","1","1","2854","2017-10-16 16:10:22","4785"
"A1QUBLZCONL4QD","caus_thomas_fire_v5","3S0TNUHWKTJJE8FATQKRRYGX9WK8DW","2","6","0","Yes","1","1","6405","2017-10-16 16:10:22","4786"
"A24DSECWUBZC0Z","caus_thomas_fire_v5","3BEFOD78W6ULZ1YLUGTHTCNMGOG4M3","7","7","0","No","1","0","3219","2017-10-16 16:10:22","4787"
"A3445FTO62DGIX","caus_thomas_fire_v5","3TE22NPXPBD5VB9FOCTL7I6MUXV448","4","7","0",,"0","0","5320","2017-10-16 16:10:22","4788"
"A1SHLCA57M79E6","caus_thomas_fire_v5","3ZGVPD4G6TI5FTCUO6KJ9MVNBRETZ4","8","8","0","Yes","1","1","5107","2017-10-16 16:10:23","4789"
"A3QN9B9ZS1CWWM","caus_thomas_fire_v5","3U4J9857OECMZXC75P1FI8W2VR2B75","9","1","0","Yes","1","0","3771","2017-10-16 16:10:23","4790"
"A2EBNMFLUR2SQF","caus_thomas_fire_v5","3LWJHTCVCCNMIWT26QWH1P4IFFLQFZ","9","2","0","No","1","0","2626","2017-10-16 16:10:24","4791"
"ADA0ASXIKB9C2","caus_thomas_fire_v5","39L1G8WVWQS3LGTS1G50ZF7D4DP319","3","5","0","No","1","0","7126","2017-10-16 16:10:24","4792"
" A3QYQSFE594CV6
","caus_thomas_fire_v5","3L0KT67Y8EH4V3PA3KDALAQZ3EWYST","3","6","0","Yes","1","0","10460","2017-10-16 16:10:24","4793"
"AV0NB9Q2CBS88","caus_thomas_fire_v5","3OF2M9AATGP6CAM7UX6R8V8RSENZK4","0","4","0","No","1","1","8874","2017-10-16 16:10:24","4794"
"A1ESYH06VN3H8U","caus_thomas_fire_v5","3TR2532VIPV9DGWEA794AIFJ8LR6JM","2","5","0","Yes","1","1","4476","2017-10-16 16:10:24","4795"
"AK9XE112RZO6Q","caus_thomas_fire_v5","3NQL1CS15R9KNV6EXFIFWXA62IQYVY","5","0","0","Yes","1","1","1740","2017-10-16 16:10:24","4796"
"A2UGM73EHLK6XI","caus_thomas_fire_v5","324G5B4FB39LFA9X794QYR0J4N570F","4","3","0","Yes","1","0","7018","2017-10-16 16:10:24","4797"
"A2PDDOU75JXTN7","caus_thomas_fire_v5","3R6BYFZZP7D6RTUES4R9VX0BCI9FXM","0","5","0","Yes","1","0","4404","2017-10-16 16:10:24","4798"
"A2P5IL629E7EC8","caus_thomas_fire_v5","326O153BMIZ0N9P16T6RJ8CJKZIED1","9","2","0","No","1","1","2629","2017-10-16 16:10:25","4799"
"A30R3WV69IZX6I","caus_thomas_fire_v5","30LB5CDZNCB4ZKF3Q4W9PBTIEGI0Z0","7","0","0","Yes","1","0","6549","2017-10-16 16:10:25","4800"
"A2UKVP21FXQ5BA
","caus_thomas_fire_v5","33LKR6A5KEL8KXRMGVBRHSBBYC21TO","7","2","0","No","1","0","4039","2017-10-16 16:10:25","4801"
"A3O3RIY1ELZ6YR","caus_thomas_fire_v5","3Z2R0DQ0JHFDKZRL94MANPLFN8TE2S","1","6","0","Yes","1","1","3491","2017-10-16 16:10:25","4802"
"A3PV8HAHROZ3RY","caus_thomas_fire_v5","32KTQ2V7RDGMW74XBBP8AKY22GU9M4","6","3","0","Yes","1","0","3205","2017-10-16 16:10:25","4803"
"A2HIPDBIQTFGAX","caus_thomas_fire_v5","374TNBHA8BWSINAXBGO5QABYLQBYQ4","7","1","0","Yes","1","1","2410","2017-10-16 16:10:25","4804"
"A1BAEFJ2OG7NJ0","caus_thomas_fire_v5","3TMFV4NEP8FINEF1ALPHJM5IGCPW8S","5","5","0","Yes","1","1","5848","2017-10-16 16:10:26","4805"
"A25NRZFFVPNH1B","caus_thomas_fire_v5","3R2PKQ87NW9F78X0F5VLNDX5L6HMI0","5","9","0","No","1","0","4196","2017-10-16 16:10:27","4806"
"A26XF8O4XRL8JA
","caus_thomas_fire_v5","3SB4CE2TJVWBV2D6HO5HHWPKF2WAX4","3","8","0","Yes","1","0","4281","2017-10-16 16:10:27","4807"
"A1R37XA9QPSIAN","caus_thomas_fire_v5","30BUDKLTXDW5JWA8RNO8LWOR7IKE5T","5","3","0","Yes","1","1","5695","2017-10-16 16:10:27","4808"
"A24DSECWUBZC0Z","caus_thomas_fire_v5","3BEFOD78W6ULZ1YLUGTHTCNMGOG4M3","8","4","0","No","1","0","3730","2017-10-16 16:10:27","4809"
"A1A8VMLJFFGCB6","caus_thomas_fire_v5","34MAJL3QP4OKDFQBOYO2XDEGGXZ34M","0","6","0","No","1","1","5318","2017-10-16 16:10:28","4810"
"A3I840ZRUE0ATX","caus_thomas_fire_v5","3K2755HG5S4STNPX14QX1QXJW0XFDK","0","0","0","Yes","1","1","10712","2017-10-16 16:10:28","4811"
"AK9XE112RZO6Q","caus_thomas_fire_v5","3NQL1CS15R9KNV6EXFIFWXA62IQYVY","6","5","0","No","1","1","2782","2017-10-16 16:10:28","4812"
"A3O3RIY1ELZ6YR","caus_thomas_fire_v5","3Z2R0DQ0JHFDKZRL94MANPLFN8TE2S","2","5","0","Yes","1","1","2087","2017-10-16 16:10:28","4813"
"A2K7AVZWEC9B14","caus_thomas_fire_v5","3LO69W1SU3EH5Z9KP5U32O506OYLG4","6","2","0","No","1","0","7282","2017-10-16 16:10:28","4814"
"A2HIPDBIQTFGAX","caus_thomas_fire_v5","374TNBHA8BWSINAXBGO5QABYLQBYQ4","8","6","0","No","1","1","2815","2017-10-16 16:10:29","4815"
"A1SHLCA57M79E6","caus_thomas_fire_v5","3ZGVPD4G6TI5FTCUO6KJ9MVNBRETZ4","9","5","0","Yes","1","1","5586","2017-10-16 16:10:29","4816"
"A2UGM73EHLK6XI","caus_thomas_fire_v5","324G5B4FB39LFA9X794QYR0J4N570F","5","4","0","Yes","1","0","4352","2017-10-16 16:10:29","4817"
"A1L00PO1P8D6E3","caus_thomas_fire_v5","3NXNZ5RS1AY3B4XA75NJR21C7RZ79R","1","2","0","No","1","1","7080","2017-10-16 16:10:30","4818"
"A3PV8HAHROZ3RY","caus_thomas_fire_v5","32KTQ2V7RDGMW74XBBP8AKY22GU9M4","7","1","0","Yes","1","0","3578","2017-10-16 16:10:30","4819"
"A1ESYH06VN3H8U","caus_thomas_fire_v5","3TR2532VIPV9DGWEA794AIFJ8LR6JM","3","9","0","Yes","1","1","4825","2017-10-16 16:10:30","4820"
"A30R3WV69IZX6I","caus_thomas_fire_v5","30LB5CDZNCB4ZKF3Q4W9PBTIEGI0Z0","8","6","0","No","1","0","4148","2017-10-16 16:10:30","4821"
"ASXN1TE7TSOMU","caus_thomas_fire_v5","34PGFRQONOC77VBK1PM88CEWWNJWJC","2","2","0","No","1","1","9413","2017-10-16 16:10:30","4822"
"A397157QX8JVSQ","caus_thomas_fire_v5","3Z4XG4ZF48SXCEKRKQL3L5JPPEW8XY","0","5","0","No","1","0","6477","2017-10-16 16:10:30","4823"
"A2PDDOU75JXTN7","caus_thomas_fire_v5","3R6BYFZZP7D6RTUES4R9VX0BCI9FXM","1","2","0","No","1","0","4842","2017-10-16 16:10:30","4824"
"A24DSECWUBZC0Z","caus_thomas_fire_v5","3BEFOD78W6ULZ1YLUGTHTCNMGOG4M3","9","9","0","No","1","0","2487","2017-10-16 16:10:31","4825"
"A3RUUCI6HGJKNW","caus_thomas_fire_v5","3JNQLM5FT4NRQ51DQQ9E0KBZW5UL2M","0","7","0","Yes","1","1","12771","2017-10-16 16:10:31","4826"
"A3O3RIY1ELZ6YR","caus_thomas_fire_v5","3Z2R0DQ0JHFDKZRL94MANPLFN8TE2S","3","8","0","Yes","1","1","1617","2017-10-16 16:10:31","4827"
"ADA0ASXIKB9C2","caus_thomas_fire_v5","39L1G8WVWQS3LGTS1G50ZF7D4DP319","4","0","0","Yes","1","0","6219","2017-10-16 16:10:31","4828"
"A26XF8O4XRL8JA
","caus_thomas_fire_v5","3SB4CE2TJVWBV2D6HO5HHWPKF2WAX4","4","4","0","Yes","1","0","3069","2017-10-16 16:10:31","4829"
" A3QYQSFE594CV6
","caus_thomas_fire_v5","3L0KT67Y8EH4V3PA3KDALAQZ3EWYST","4","4","0","Yes","1","0","6394","2017-10-16 16:10:31","4830"
"A3445FTO62DGIX","caus_thomas_fire_v5","3TE22NPXPBD5VB9FOCTL7I6MUXV448","5","5","0","No","1","0","8049","2017-10-16 16:10:32","4831"
"AK9XE112RZO6Q","caus_thomas_fire_v5","3NQL1CS15R9KNV6EXFIFWXA62IQYVY","7","4","0","No","1","1","2359","2017-10-16 16:10:32","4832"
"A1BAEFJ2OG7NJ0","caus_thomas_fire_v5","3TMFV4NEP8FINEF1ALPHJM5IGCPW8S","6","4","0","Yes","1","1","5313","2017-10-16 16:10:32","4833"
"A25NRZFFVPNH1B","caus_thomas_fire_v5","3R2PKQ87NW9F78X0F5VLNDX5L6HMI0","6","1","0","Yes","1","0","4842","2017-10-16 16:10:33","4834"
"A1QUBLZCONL4QD","caus_thomas_fire_v5","3S0TNUHWKTJJE8FATQKRRYGX9WK8DW","3","2","0","No","1","1","9532","2017-10-16 16:10:33","4835"
"A2UKVP21FXQ5BA
","caus_thomas_fire_v5","33LKR6A5KEL8KXRMGVBRHSBBYC21TO","8","0","0","Yes","1","0","6633","2017-10-16 16:10:33","4836"
"A18RC3AV8098WD","caus_thomas_fire_v5","3OS4RQUCR9GZEQRDN8ZR609JTFLBF9","0","3","0","Yes","1","0","6527","2017-10-16 16:10:33","4837"
"AV0NB9Q2CBS88","caus_thomas_fire_v5","3OF2M9AATGP6CAM7UX6R8V8RSENZK4","1","5","0","No","1","1","7840","2017-10-16 16:10:33","4838"
"A3O3RIY1ELZ6YR","caus_thomas_fire_v5","3Z2R0DQ0JHFDKZRL94MANPLFN8TE2S","4","4","0","Yes","1","1","1386","2017-10-16 16:10:33","4839"
"A18RC3AV8098WD","caus_thomas_fire_v5","3OS4RQUCR9GZEQRDN8ZR609JTFLBF9","2","5","0","No","1","0","5182","2017-10-16 16:10:34","4840"
"A1R37XA9QPSIAN","caus_thomas_fire_v5","30BUDKLTXDW5JWA8RNO8LWOR7IKE5T","6","6","0","No","1","1","5841","2017-10-16 16:10:34","4841"
"A18RC3AV8098WD","caus_thomas_fire_v5","3OS4RQUCR9GZEQRDN8ZR609JTFLBF9","1","0","0","Yes","1","0","4752","2017-10-16 16:10:34","4842"
"A2K7AVZWEC9B14","caus_thomas_fire_v5","3LO69W1SU3EH5Z9KP5U32O506OYLG4","7","8","0","Yes","1","0","4861","2017-10-16 16:10:34","4843"
"A3PV8HAHROZ3RY","caus_thomas_fire_v5","32KTQ2V7RDGMW74XBBP8AKY22GU9M4","8","7","0","No","1","0","3757","2017-10-16 16:10:35","4844"
"A30R3WV69IZX6I","caus_thomas_fire_v5","30LB5CDZNCB4ZKF3Q4W9PBTIEGI0Z0","9","7","0","No","1","0","4173","2017-10-16 16:10:35","4845"
"AK9XE112RZO6Q","caus_thomas_fire_v5","3NQL1CS15R9KNV6EXFIFWXA62IQYVY","8","8","0","No","1","1","2307","2017-10-16 16:10:35","4846"
"A1A8VMLJFFGCB6","caus_thomas_fire_v5","34MAJL3QP4OKDFQBOYO2XDEGGXZ34M","1","3","0","Yes","1","1","6527","2017-10-16 16:10:35","4847"
"A26XF8O4XRL8JA
","caus_thomas_fire_v5","3SB4CE2TJVWBV2D6HO5HHWPKF2WAX4","5","2","0","No","1","0","3404","2017-10-16 16:10:35","4848"
"A1ESYH06VN3H8U","caus_thomas_fire_v5","3TR2532VIPV9DGWEA794AIFJ8LR6JM","4","8","0","Yes","1","1","4749","2017-10-16 16:10:36","4849"
"A3O3RIY1ELZ6YR","caus_thomas_fire_v5","3Z2R0DQ0JHFDKZRL94MANPLFN8TE2S","5","1","0","Yes","1","1","1379","2017-10-16 16:10:36","4850"
"A3I840ZRUE0ATX","caus_thomas_fire_v5","3K2755HG5S4STNPX14QX1QXJW0XFDK","1","5","0","Yes","1","1","7514","2017-10-16 16:10:36","4851"
"ASXN1TE7TSOMU","caus_thomas_fire_v5","34PGFRQONOC77VBK1PM88CEWWNJWJC","3","7","0","No","1","1","5542","2017-10-16 16:10:37","4852"
"AG1G5IA3P606T","caus_thomas_fire_v5","3FE7TXL1LIO2H2HQIVHAH6AT6BHQ2G","0","3","0","Yes","1","1","7101","2017-10-16 16:10:37","4853"
"A2PDDOU75JXTN7","caus_thomas_fire_v5","3R6BYFZZP7D6RTUES4R9VX0BCI9FXM","2","7","0","Yes","1","0","5965","2017-10-16 16:10:37","4854"
"A397157QX8JVSQ","caus_thomas_fire_v5","3Z4XG4ZF48SXCEKRKQL3L5JPPEW8XY","1","6","0","No","1","0","6105","2017-10-16 16:10:37","4855"
"A25NRZFFVPNH1B","caus_thomas_fire_v5","3R2PKQ87NW9F78X0F5VLNDX5L6HMI0","7","8","0","No","1","0","3825","2017-10-16 16:10:38","4856"
"A3O3RIY1ELZ6YR","caus_thomas_fire_v5","3Z2R0DQ0JHFDKZRL94MANPLFN8TE2S","6","9","0","Yes","1","1","1264","2017-10-16 16:10:38","4857"
" A3QYQSFE594CV6
","caus_thomas_fire_v5","3L0KT67Y8EH4V3PA3KDALAQZ3EWYST","5","7","0","Yes","1","0","5814","2017-10-16 16:10:38","4858"
"A2UKVP21FXQ5BA
","caus_thomas_fire_v5","33LKR6A5KEL8KXRMGVBRHSBBYC21TO","9","9","0","No","1","0","4395","2017-10-16 16:10:38","4859"
"AV0NB9Q2CBS88","caus_thomas_fire_v5","3OF2M9AATGP6CAM7UX6R8V8RSENZK4","2","2","0","No","1","1","4258","2017-10-16 16:10:38","4860"
"A3PV8HAHROZ3RY","caus_thomas_fire_v5","32KTQ2V7RDGMW74XBBP8AKY22GU9M4","9","8","0","No","1","0","3716","2017-10-16 16:10:39","4861"
"A2UGM73EHLK6XI","caus_thomas_fire_v5","324G5B4FB39LFA9X794QYR0J4N570F","6","9","0","Yes","1","0","8830","2017-10-16 16:10:39","4862"
"A2HIPDBIQTFGAX","caus_thomas_fire_v5","374TNBHA8BWSINAXBGO5QABYLQBYQ4","9","3","0","Yes","1","1","9261","2017-10-16 16:10:39","4863"
"ADA0ASXIKB9C2","caus_thomas_fire_v5","39L1G8WVWQS3LGTS1G50ZF7D4DP319","5","9","0","No","1","0","7543","2017-10-16 16:10:39","4864"
"A1BAEFJ2OG7NJ0","caus_thomas_fire_v5","3TMFV4NEP8FINEF1ALPHJM5IGCPW8S","7","8","0","Yes","1","1","6132","2017-10-16 16:10:40","4865"
"A3RUUCI6HGJKNW","caus_thomas_fire_v5","3JNQLM5FT4NRQ51DQQ9E0KBZW5UL2M","1","1","0","Yes","1","1","8096","2017-10-16 16:10:40","4866"
"AK9XE112RZO6Q","caus_thomas_fire_v5","3NQL1CS15R9KNV6EXFIFWXA62IQYVY","9","3","0","Yes","1","1","3876","2017-10-16 16:10:40","4867"
"A1R37XA9QPSIAN","caus_thomas_fire_v5","30BUDKLTXDW5JWA8RNO8LWOR7IKE5T","7","1","0","Yes","1","1","5010","2017-10-16 16:10:40","4868"
"A1QUBLZCONL4QD","caus_thomas_fire_v5","3S0TNUHWKTJJE8FATQKRRYGX9WK8DW","4","9","0","Yes","1","1","6484","2017-10-16 16:10:40","4869"
"A3445FTO62DGIX","caus_thomas_fire_v5","3TE22NPXPBD5VB9FOCTL7I6MUXV448","6","1","0","Yes","1","0","7764","2017-10-16 16:10:40","4870"
"A26XF8O4XRL8JA
","caus_thomas_fire_v5","3SB4CE2TJVWBV2D6HO5HHWPKF2WAX4","6","3","0","Yes","1","0","4165","2017-10-16 16:10:41","4871"
"A1A8VMLJFFGCB6","caus_thomas_fire_v5","34MAJL3QP4OKDFQBOYO2XDEGGXZ34M","2","1","0","Yes","1","1","4544","2017-10-16 16:10:41","4872"
"A18RC3AV8098WD","caus_thomas_fire_v5","3OS4RQUCR9GZEQRDN8ZR609JTFLBF9","3","8","0","No","1","0","8699","2017-10-16 16:10:41","4873"
"A2K7AVZWEC9B14","caus_thomas_fire_v5","3LO69W1SU3EH5Z9KP5U32O506OYLG4","8","4","0","Yes","1","0","6535","2017-10-16 16:10:42","4874"
"ANPTDUX6LOGYY","caus_thomas_fire_v5","35GMH2SV3EIRR6GQW2K7U2OIODOOE7","0","2","0","No","1","0","5325","2017-10-16 16:10:42","4875"
"A25NRZFFVPNH1B","caus_thomas_fire_v5","3R2PKQ87NW9F78X0F5VLNDX5L6HMI0","8","2","0","No","1","0","3906","2017-10-16 16:10:42","4876"
"AG1G5IA3P606T","caus_thomas_fire_v5","3FE7TXL1LIO2H2HQIVHAH6AT6BHQ2G","1","2","0","No","1","1","4514","2017-10-16 16:10:42","4877"
"A2PDDOU75JXTN7","caus_thomas_fire_v5","3R6BYFZZP7D6RTUES4R9VX0BCI9FXM","3","0","0","Yes","1","0","4251","2017-10-16 16:10:42","4878"
"ASXN1TE7TSOMU","caus_thomas_fire_v5","34PGFRQONOC77VBK1PM88CEWWNJWJC","4","3","0","Yes","1","1","4884","2017-10-16 16:10:43","4879"
"A3I840ZRUE0ATX","caus_thomas_fire_v5","3K2755HG5S4STNPX14QX1QXJW0XFDK","2","4","0","Yes","1","1","6029","2017-10-16 16:10:44","4880"
"A2MQGU4NZZ8V0H
","caus_thomas_fire_v5","31IBVUNM9S0EN4PJSPQR7C3QW71FVJ","0","9","0","Yes","1","1","7085","2017-10-16 16:10:44","4881"
"A397157QX8JVSQ","caus_thomas_fire_v5","3Z4XG4ZF48SXCEKRKQL3L5JPPEW8XY","2","4","0","No","1","0","6330","2017-10-16 16:10:45","4882"
"A26XF8O4XRL8JA
","caus_thomas_fire_v5","3SB4CE2TJVWBV2D6HO5HHWPKF2WAX4","7","5","0","Yes","1","0","3563","2017-10-16 16:10:45","4883"
"A1ESYH06VN3H8U","caus_thomas_fire_v5","3TR2532VIPV9DGWEA794AIFJ8LR6JM","5","3","0","Yes","1","1","8572","2017-10-16 16:10:45","4884"
"A1BAEFJ2OG7NJ0","caus_thomas_fire_v5","3TMFV4NEP8FINEF1ALPHJM5IGCPW8S","8","6","0","Yes","1","1","5205","2017-10-16 16:10:46","4885"
" A3QYQSFE594CV6
","caus_thomas_fire_v5","3L0KT67Y8EH4V3PA3KDALAQZ3EWYST","6","9","0","Yes","1","0","6987","2017-10-16 16:10:46","4886"
"A1QUBLZCONL4QD","caus_thomas_fire_v5","3S0TNUHWKTJJE8FATQKRRYGX9WK8DW","5","0","0","Yes","1","1","5012","2017-10-16 16:10:46","4887"
"A3RUUCI6HGJKNW","caus_thomas_fire_v5","3JNQLM5FT4NRQ51DQQ9E0KBZW5UL2M","2","6","0","Yes","1","1","5444","2017-10-16 16:10:46","4888"
"AV0NB9Q2CBS88","caus_thomas_fire_v5","3OF2M9AATGP6CAM7UX6R8V8RSENZK4","3","0","0","Yes","1","1","7016","2017-10-16 16:10:46","4889"
"ADA0ASXIKB9C2","caus_thomas_fire_v5","39L1G8WVWQS3LGTS1G50ZF7D4DP319","6","8","0","No","1","0","6160","2017-10-16 16:10:47","4890"
"A1PKCBFB4QY19G","caus_thomas_fire_v5","3CPLWGV3MO0SEPPXNC48NZN2764N9I","0","7","0","Yes","1","1","5063","2017-10-16 16:10:47","4891"
"A18RC3AV8098WD","caus_thomas_fire_v5","3OS4RQUCR9GZEQRDN8ZR609JTFLBF9","4","2","0","No","1","0","4347","2017-10-16 16:10:47","4892"
"A1A8VMLJFFGCB6","caus_thomas_fire_v5","34MAJL3QP4OKDFQBOYO2XDEGGXZ34M","3","7","0","No","1","1","5196","2017-10-16 16:10:47","4893"
"A25NRZFFVPNH1B","caus_thomas_fire_v5","3R2PKQ87NW9F78X0F5VLNDX5L6HMI0","9","5","0","No","1","0","3999","2017-10-16 16:10:47","4894"
"A2UGM73EHLK6XI","caus_thomas_fire_v5","324G5B4FB39LFA9X794QYR0J4N570F","7","1","0","Yes","1","0","7231","2017-10-16 16:10:48","4895"
"A3DFMWYTKJ57L","caus_thomas_fire_v5","3X65QVEQI0O4ONTFNJYKCXKL8W7CLM","0","4","0","Yes","1","0","10351","2017-10-16 16:10:48","4896"
"A2K7AVZWEC9B14","caus_thomas_fire_v5","3LO69W1SU3EH5Z9KP5U32O506OYLG4","9","6","0","Yes","1","0","4972","2017-10-16 16:10:48","4897"
"A1R37XA9QPSIAN","caus_thomas_fire_v5","30BUDKLTXDW5JWA8RNO8LWOR7IKE5T","8","8","0","No","1","1","7062","2017-10-16 16:10:48","4898"
"A3O3RIY1ELZ6YR","caus_thomas_fire_v5","3Z2R0DQ0JHFDKZRL94MANPLFN8TE2S","7","7","0","Yes","1","1","9321","2017-10-16 16:10:48","4899"
"A3445FTO62DGIX","caus_thomas_fire_v5","3TE22NPXPBD5VB9FOCTL7I6MUXV448","7","4","0","No","1","0","7713","2017-10-16 16:10:49","4900"
"A3I840ZRUE0ATX","caus_thomas_fire_v5","3K2755HG5S4STNPX14QX1QXJW0XFDK","3","9","0","Yes","1","1","4523","2017-10-16 16:10:49","4901"
"A26XF8O4XRL8JA
","caus_thomas_fire_v5","3SB4CE2TJVWBV2D6HO5HHWPKF2WAX4","8","0","0","Yes","1","0","2990","2017-10-16 16:10:49","4902"
"A2PDDOU75JXTN7","caus_thomas_fire_v5","3R6BYFZZP7D6RTUES4R9VX0BCI9FXM","4","1","0","Yes","1","0","5720","2017-10-16 16:10:49","4903"
"A2MQGU4NZZ8V0H
","caus_thomas_fire_v5","31IBVUNM9S0EN4PJSPQR7C3QW71FVJ","1","8","0","Yes","1","1","4819","2017-10-16 16:10:49","4904"
"AG1G5IA3P606T","caus_thomas_fire_v5","3FE7TXL1LIO2H2HQIVHAH6AT6BHQ2G","2","8","0","No","1","1","6202","2017-10-16 16:10:50","4905"
"A1L00PO1P8D6E3","caus_thomas_fire_v5","3NXNZ5RS1AY3B4XA75NJR21C7RZ79R","2","6","0","No","1","1","19837","2017-10-16 16:10:50","4906"
"A1PKCBFB4QY19G","caus_thomas_fire_v5","3CPLWGV3MO0SEPPXNC48NZN2764N9I","1","8","0","Yes","1","1","3032","2017-10-16 16:10:51","4907"
"A397157QX8JVSQ","caus_thomas_fire_v5","3Z4XG4ZF48SXCEKRKQL3L5JPPEW8XY","3","2","0","No","1","0","5667","2017-10-16 16:10:51","4908"
"A1BAEFJ2OG7NJ0","caus_thomas_fire_v5","3TMFV4NEP8FINEF1ALPHJM5IGCPW8S","9","7","0","Yes","1","1","4763","2017-10-16 16:10:52","4909"
"AV0NB9Q2CBS88","caus_thomas_fire_v5","3OF2M9AATGP6CAM7UX6R8V8RSENZK4","4","3","0","Yes","1","1","4442","2017-10-16 16:10:52","4910"
"A1ESYH06VN3H8U","caus_thomas_fire_v5","3TR2532VIPV9DGWEA794AIFJ8LR6JM","6","2","0","No","1","1","5429","2017-10-16 16:10:52","4911"
"A1CC1ESUM2JWJ2
","caus_thomas_fire_v5","3E4GGUZ1T8SG6ZJV5QXDLKYK75PK2I","0","1","0","Yes","1","0","3638","2017-10-16 16:10:52","4912"
"A2UGM73EHLK6XI","caus_thomas_fire_v5","324G5B4FB39LFA9X794QYR0J4N570F","8","6","0","Yes","1","0","4233","2017-10-16 16:10:53","4913"
"A2PDDOU75JXTN7","caus_thomas_fire_v5","3R6BYFZZP7D6RTUES4R9VX0BCI9FXM","5","9","0","Yes","1","0","2706","2017-10-16 16:10:53","4914"
"A1A8VMLJFFGCB6","caus_thomas_fire_v5","34MAJL3QP4OKDFQBOYO2XDEGGXZ34M","4","2","0","No","1","1","4998","2017-10-16 16:10:53","4915"
"A18RC3AV8098WD","caus_thomas_fire_v5","3OS4RQUCR9GZEQRDN8ZR609JTFLBF9","5","4","0","No","1","0","5024","2017-10-16 16:10:53","4916"
"A1R37XA9QPSIAN","caus_thomas_fire_v5","30BUDKLTXDW5JWA8RNO8LWOR7IKE5T","9","2","0","No","1","1","4791","2017-10-16 16:10:54","4917"
"ASXN1TE7TSOMU","caus_thomas_fire_v5","34PGFRQONOC77VBK1PM88CEWWNJWJC","5","1","0","Yes","1","1","10454","2017-10-16 16:10:54","4918"
"A26XF8O4XRL8JA
","caus_thomas_fire_v5","3SB4CE2TJVWBV2D6HO5HHWPKF2WAX4","9","6","0","Yes","1","0","4085","2017-10-16 16:10:54","4919"
"A1PKCBFB4QY19G","caus_thomas_fire_v5","3CPLWGV3MO0SEPPXNC48NZN2764N9I","2","1","0","Yes","1","1","2399","2017-10-16 16:10:54","4920"
"A3DFMWYTKJ57L","caus_thomas_fire_v5","3X65QVEQI0O4ONTFNJYKCXKL8W7CLM","1","2","0","No","1","0","5596","2017-10-16 16:10:54","4921"
"A2EP2TI8HE8EGK","caus_thomas_fire_v5","3KB8R4ZV1E85SQN8YS59OL9VUULGBD","0","4","0","Yes","1","0","5943","2017-10-16 16:10:54","4922"
"ADA0ASXIKB9C2","caus_thomas_fire_v5","39L1G8WVWQS3LGTS1G50ZF7D4DP319","7","7","0","No","1","0","6696","2017-10-16 16:10:54","4923"
"A3JK4DZ95IXN5P","caus_thomas_fire_v5","323Q6SJS8IH953UZN09NSBCHOSQFHT","0","7","0","Yes","1","1","5724","2017-10-16 16:10:55","4924"
"A151IWEMV5XRTA","caus_thomas_fire_v5","3IJXV6UZ1XK64OASKDR29CRFRTGRIT","0","0","0","Yes","1","1","15077","2017-10-16 16:10:55","4925"
"A3I840ZRUE0ATX","caus_thomas_fire_v5","3K2755HG5S4STNPX14QX1QXJW0XFDK","4","8","0","Yes","1","1","5743","2017-10-16 16:10:56","4926"
"AG1G5IA3P606T","caus_thomas_fire_v5","3FE7TXL1LIO2H2HQIVHAH6AT6BHQ2G","3","9","0","No","1","1","5573","2017-10-16 16:10:56","4927"
"A2PDDOU75JXTN7","caus_thomas_fire_v5","3R6BYFZZP7D6RTUES4R9VX0BCI9FXM","6","4","0","Yes","1","0","2066","2017-10-16 16:10:56","4928"
"A397157QX8JVSQ","caus_thomas_fire_v5","3Z4XG4ZF48SXCEKRKQL3L5JPPEW8XY","4","9","0","No","1","0","4084","2017-10-16 16:10:56","4929"
