"subject","version","assignmentId","rating","question_ind","trial_ind","focal_high","alt_high","rt","stamp","id"
"A2YQBBAK7NBZHU","caus_thomas_all_dis_v1","3EQHHY4HQST33A6ZXIEWLZ93FR25GL","8","0","0","8","1","30059","2017-09-18 14:06:03","10277"
"A2XFO0X6RCS98M","caus_thomas_all_dis_v1","3WZ36BJEV3H9XV9EIS4GN4OKFHVTBI","5","0","0","4","4","10210","2017-09-18 14:06:12","10278"
"A36OLZLW29173F","caus_thomas_all_dis_v1","3OLF68YTN92UVGMLHUZVBPPD6Q3AFX","8","0","0","8","6","27605","2017-09-18 14:06:15","10279"
"A2Z2OV7QGU10QN","caus_thomas_all_dis_v1","34X6J5FLPTZ2NYFYPGN2GNWA3F5QJM","8","0","0","8","6","31147","2017-09-18 14:06:17","10280"
"ALYR5CI2SM2JC","caus_thomas_all_dis_v1","3F0BG9B9MPOIC55IFHFZQJU3BTN7Y0","8","0","0","6","1","41691","2017-09-18 14:06:20","10281"
"A2YQBBAK7NBZHU","caus_thomas_all_dis_v1","3EQHHY4HQST33A6ZXIEWLZ93FR25GL","8","1","1","7","5","16568","2017-09-18 14:06:20","10282"
"A2XFO0X6RCS98M","caus_thomas_all_dis_v1","3WZ36BJEV3H9XV9EIS4GN4OKFHVTBI","6","1","1","9","9","11878","2017-09-18 14:06:25","10283"
"A2Z2OV7QGU10QN","caus_thomas_all_dis_v1","34X6J5FLPTZ2NYFYPGN2GNWA3F5QJM","0","1","1","6","5","13440","2017-09-18 14:06:32","10284"
"A2XFO0X6RCS98M","caus_thomas_all_dis_v1","3WZ36BJEV3H9XV9EIS4GN4OKFHVTBI","2","2","2","6","8","6397","2017-09-18 14:06:33","10285"
"A36OLZLW29173F","caus_thomas_all_dis_v1","3OLF68YTN92UVGMLHUZVBPPD6Q3AFX","7","1","1","6","2","19357","2017-09-18 14:06:35","10286"
"A2YQBBAK7NBZHU","caus_thomas_all_dis_v1","3EQHHY4HQST33A6ZXIEWLZ93FR25GL","8","2","2","5","8","16660","2017-09-18 14:06:38","10287"
"ALYR5CI2SM2JC","caus_thomas_all_dis_v1","3F0BG9B9MPOIC55IFHFZQJU3BTN7Y0","8","1","1","5","2","17138","2017-09-18 14:06:38","10288"
"A3S1RAA0VUVQK","caus_thomas_all_dis_v1","31LM9EDVOLTHK1269OVLCT15Y4INJW","8","0","0","9","5","40995","2017-09-18 14:06:39","10289"
"A2WYEOT1O3OXPS","caus_thomas_all_dis_v1","3TEM0PF1Q5Y1WJA7YM7CYJAFLRB0DL","8","0","0","10","6","49694","2017-09-18 14:06:41","10290"
"A2XFO0X6RCS98M","caus_thomas_all_dis_v1","3WZ36BJEV3H9XV9EIS4GN4OKFHVTBI","1","3","3","5","1","7634","2017-09-18 14:06:41","10291"
"A10LLZZHZVGWRW","caus_thomas_all_dis_v1","3SBEHTYCWN4F1PMEY8JWH8KCP9XYIL","4","0","0","4","10","19379","2017-09-18 14:06:42","10292"
"AFWKRID53R1XA","caus_thomas_all_dis_v1","3Y5140Z9DXHLSBUD7LND4HR0L4VIPC","6","0","0","1","9","29819","2017-09-18 14:06:42","10293"
"A36OLZLW29173F","caus_thomas_all_dis_v1","3OLF68YTN92UVGMLHUZVBPPD6Q3AFX","7","2","2","10","7","7296","2017-09-18 14:06:43","10294"
"A163J5TEJBO43B","caus_thomas_all_dis_v1","3KWTYT08704JP2K089BCYREBB8O5LR","8","0","0","8","10","37854","2017-09-18 14:06:44","10295"
"A2Z2OV7QGU10QN","caus_thomas_all_dis_v1","34X6J5FLPTZ2NYFYPGN2GNWA3F5QJM","8","2","2","7","8","11889","2017-09-18 14:06:45","10296"
"A2XFO0X6RCS98M","caus_thomas_all_dis_v1","3WZ36BJEV3H9XV9EIS4GN4OKFHVTBI","5","4","4","2","7","6516","2017-09-18 14:06:49","10297"
"A36OLZLW29173F","caus_thomas_all_dis_v1","3OLF68YTN92UVGMLHUZVBPPD6Q3AFX","7","3","3","9","10","5314","2017-09-18 14:06:50","10298"
"A2YQBBAK7NBZHU","caus_thomas_all_dis_v1","3EQHHY4HQST33A6ZXIEWLZ93FR25GL","8","3","3","3","9","14810","2017-09-18 14:06:54","10299"
"ALYR5CI2SM2JC","caus_thomas_all_dis_v1","3F0BG9B9MPOIC55IFHFZQJU3BTN7Y0","4","2","2","4","10","15012","2017-09-18 14:06:54","10300"
"A36OLZLW29173F","caus_thomas_all_dis_v1","3OLF68YTN92UVGMLHUZVBPPD6Q3AFX","7","4","4","3","3","3581","2017-09-18 14:06:54","10301"
"A3S1RAA0VUVQK","caus_thomas_all_dis_v1","31LM9EDVOLTHK1269OVLCT15Y4INJW","8","1","1","4","4","17003","2017-09-18 14:06:57","10302"
"AFWKRID53R1XA","caus_thomas_all_dis_v1","3Y5140Z9DXHLSBUD7LND4HR0L4VIPC","7","1","1","7","3","14199","2017-09-18 14:06:57","10303"
"A2Z2OV7QGU10QN","caus_thomas_all_dis_v1","34X6J5FLPTZ2NYFYPGN2GNWA3F5QJM","8","3","3","1","10","9738","2017-09-18 14:06:58","10304"
"A10LLZZHZVGWRW","caus_thomas_all_dis_v1","3SBEHTYCWN4F1PMEY8JWH8KCP9XYIL","4","1","1","8","3","17293","2017-09-18 14:07:00","10305"
"ALYR5CI2SM2JC","caus_thomas_all_dis_v1","3F0BG9B9MPOIC55IFHFZQJU3BTN7Y0","8","3","3","3","7","5731","2017-09-18 14:07:01","10306"
"A2YQBBAK7NBZHU","caus_thomas_all_dis_v1","3EQHHY4HQST33A6ZXIEWLZ93FR25GL","8","4","4","1","3","7679","2017-09-18 14:07:02","10307"
"A2WYEOT1O3OXPS","caus_thomas_all_dis_v1","3TEM0PF1Q5Y1WJA7YM7CYJAFLRB0DL","4","1","1","4","4","22218","2017-09-18 14:07:04","10308"
"A163J5TEJBO43B","caus_thomas_all_dis_v1","3KWTYT08704JP2K089BCYREBB8O5LR","0","1","1","10","3","19918","2017-09-18 14:07:05","10309"
"ALYR5CI2SM2JC","caus_thomas_all_dis_v1","3F0BG9B9MPOIC55IFHFZQJU3BTN7Y0","8","4","4","8","6","3771","2017-09-18 14:07:06","10310"
"A3S1RAA0VUVQK","caus_thomas_all_dis_v1","31LM9EDVOLTHK1269OVLCT15Y4INJW","8","2","2","8","8","11584","2017-09-18 14:07:09","10311"
"A10LLZZHZVGWRW","caus_thomas_all_dis_v1","3SBEHTYCWN4F1PMEY8JWH8KCP9XYIL","5","2","2","9","5","7747","2017-09-18 14:07:09","10312"
"A2Z2OV7QGU10QN","caus_thomas_all_dis_v1","34X6J5FLPTZ2NYFYPGN2GNWA3F5QJM","8","4","4","2","4","13761","2017-09-18 14:07:10","10313"
"A2WYEOT1O3OXPS","caus_thomas_all_dis_v1","3TEM0PF1Q5Y1WJA7YM7CYJAFLRB0DL","4","2","2","1","5","6339","2017-09-18 14:07:12","10314"
"AFWKRID53R1XA","caus_thomas_all_dis_v1","3Y5140Z9DXHLSBUD7LND4HR0L4VIPC","5","2","2","2","7","15705","2017-09-18 14:07:14","10315"
"A12VU5YSHGQH2V","caus_thomas_all_dis_v1","3IO1LGZLK9YKTZ0VJ3CDLS65N3086O","8","0","0","8","7","22738","2017-09-18 14:07:15","10316"
"A2WYEOT1O3OXPS","caus_thomas_all_dis_v1","3TEM0PF1Q5Y1WJA7YM7CYJAFLRB0DL","4","3","3","7","1","3805","2017-09-18 14:07:17","10317"
"A3S1RAA0VUVQK","caus_thomas_all_dis_v1","31LM9EDVOLTHK1269OVLCT15Y4INJW","8","3","3","3","1","7982","2017-09-18 14:07:18","10318"
"A10LLZZHZVGWRW","caus_thomas_all_dis_v1","3SBEHTYCWN4F1PMEY8JWH8KCP9XYIL","5","3","3","6","1","9421","2017-09-18 14:07:20","10319"
"A163J5TEJBO43B","caus_thomas_all_dis_v1","3KWTYT08704JP2K089BCYREBB8O5LR","4","2","2","9","6","16814","2017-09-18 14:07:23","10320"
"A2YO837C0O1E91","caus_thomas_all_dis_v1","3TOK3KHVJTJ6IR1G9U61OSW1XJO7OP","8","0","0","6","3","89207","2017-09-18 14:07:24","10321"
"AFWKRID53R1XA","caus_thomas_all_dis_v1","3Y5140Z9DXHLSBUD7LND4HR0L4VIPC","7","3","3","4","6","8959","2017-09-18 14:07:24","10322"
"A2WYEOT1O3OXPS","caus_thomas_all_dis_v1","3TEM0PF1Q5Y1WJA7YM7CYJAFLRB0DL","4","4","4","8","2","7138","2017-09-18 14:07:25","10323"
"A3S1RAA0VUVQK","caus_thomas_all_dis_v1","31LM9EDVOLTHK1269OVLCT15Y4INJW","8","4","4","7","6","6199","2017-09-18 14:07:25","10324"
"A10LLZZHZVGWRW","caus_thomas_all_dis_v1","3SBEHTYCWN4F1PMEY8JWH8KCP9XYIL","5","4","4","7","8","6787","2017-09-18 14:07:27","10325"
"A12VU5YSHGQH2V","caus_thomas_all_dis_v1","3IO1LGZLK9YKTZ0VJ3CDLS65N3086O","8","1","1","1","1","15223","2017-09-18 14:07:31","10326"
"AFWKRID53R1XA","caus_thomas_all_dis_v1","3Y5140Z9DXHLSBUD7LND4HR0L4VIPC","2","4","4","5","10","7497","2017-09-18 14:07:33","10327"
"A2YO837C0O1E91","caus_thomas_all_dis_v1","3TOK3KHVJTJ6IR1G9U61OSW1XJO7OP","7","1","1","9","10","13684","2017-09-18 14:07:39","10328"
"A2R794P3E8X0MK","caus_thomas_all_dis_v1","354P56DE9K4LGJT9GBNA8X62U8R7SM","7","0","0","10","4","37253","2017-09-18 14:07:40","10329"
"A2O19SRDLSQDP6","caus_thomas_all_dis_v1","3DPNQGW4LLGJAYDT70M04GQ0LH464F","8","0","0","4","9","51745","2017-09-18 14:07:42","10330"
"A163J5TEJBO43B","caus_thomas_all_dis_v1","3KWTYT08704JP2K089BCYREBB8O5LR","5","3","3","1","2","18123","2017-09-18 14:07:42","10331"
"A12VU5YSHGQH2V","caus_thomas_all_dis_v1","3IO1LGZLK9YKTZ0VJ3CDLS65N3086O","8","2","2","3","4","11371","2017-09-18 14:07:43","10332"
"A12VU5YSHGQH2V","caus_thomas_all_dis_v1","3IO1LGZLK9YKTZ0VJ3CDLS65N3086O","8","3","3","9","2","5283","2017-09-18 14:07:50","10333"
"ACIHCWKHNFC7U","caus_thomas_all_dis_v1","3KOPY89HM83AGX9WR5B63F3ZTNS3JX","4","0","0","5","3","2826","2017-09-18 14:07:50","10334"
"ACIHCWKHNFC7U","caus_thomas_all_dis_v1","3KOPY89HM83AGX9WR5B63F3ZTNS3JX","6","1","1","9","8","2599","2017-09-18 14:07:53","10335"
"ACIHCWKHNFC7U","caus_thomas_all_dis_v1","3KOPY89HM83AGX9WR5B63F3ZTNS3JX","3","2","2","2","2","1913","2017-09-18 14:07:56","10336"
"A163J5TEJBO43B","caus_thomas_all_dis_v1","3KWTYT08704JP2K089BCYREBB8O5LR","7","4","4","2","8","14008","2017-09-18 14:07:57","10337"
"ACIHCWKHNFC7U","caus_thomas_all_dis_v1","3KOPY89HM83AGX9WR5B63F3ZTNS3JX","5","3","3","6","5","1814","2017-09-18 14:07:59","10338"
"A12VU5YSHGQH2V","caus_thomas_all_dis_v1","3IO1LGZLK9YKTZ0VJ3CDLS65N3086O","8","4","4","2","3","9789","2017-09-18 14:08:00","10339"
"A2R794P3E8X0MK","caus_thomas_all_dis_v1","354P56DE9K4LGJT9GBNA8X62U8R7SM","8","1","1","4","10","20100","2017-09-18 14:08:01","10340"
"ACIHCWKHNFC7U","caus_thomas_all_dis_v1","3KOPY89HM83AGX9WR5B63F3ZTNS3JX","6","4","4","4","9","1780","2017-09-18 14:08:02","10341"
"A2O19SRDLSQDP6","caus_thomas_all_dis_v1","3DPNQGW4LLGJAYDT70M04GQ0LH464F","8","1","1","7","4","21877","2017-09-18 14:08:05","10342"
"A342YLIMT6THWO
","caus_thomas_all_dis_v1","3ZPBJO59KP2C7JG3WUEX4B9W78DDH0","8","0","0","9","9","53023","2017-09-18 14:08:05","10343"
"A35C12CR628WKD","caus_thomas_all_dis_v1","3DHE4R9OCWCB4DNCFZCYNS6RVHBG2V","4","0","0","2","5","21662","2017-09-18 14:08:05","10344"
"ATY2JKVS3OYUV","caus_thomas_all_dis_v1","3KB8R4ZV1E85SQN8YS59OL9VPNOGBX","8","0","0","8","7","38438","2017-09-18 14:08:08","10345"
"AV581SCZZM1YE","caus_thomas_all_dis_v1","3K2755HG5S4STNPX14QX1QXJRT0DF2","4","0","0","4","5","84942","2017-09-18 14:08:09","10346"
"A1TSVP4XC9NTR4","caus_thomas_all_dis_v1","3OHYZ19UGC6O1TZEGXILYJYRYRUAOJ","8","0","0","8","6","89901","2017-09-18 14:08:09","10347"
"A3KCT51PDCLUFD","caus_thomas_all_dis_v1","3Z2R0DQ0JHFDKZRL94MANPLFI1W2E0","0","0","0","3","3","20655","2017-09-18 14:08:10","10348"
"A1N4O370NJB9U8","caus_thomas_all_dis_v1","3L2IS5HSFAJQYHD0LNZZJVAGFKGNUS","8","0","0","6","2","110837","2017-09-18 14:08:10","10349"
"A35C12CR628WKD","caus_thomas_all_dis_v1","3DHE4R9OCWCB4DNCFZCYNS6RVHBG2V","0","1","1","10","10","8773","2017-09-18 14:08:15","10350"
"AV581SCZZM1YE","caus_thomas_all_dis_v1","3K2755HG5S4STNPX14QX1QXJRT0DF2","5","1","1","10","1","9264","2017-09-18 14:08:19","10351"
"A2R794P3E8X0MK","caus_thomas_all_dis_v1","354P56DE9K4LGJT9GBNA8X62U8R7SM","7","2","2","7","7","17169","2017-09-18 14:08:19","10352"
"A2O19SRDLSQDP6","caus_thomas_all_dis_v1","3DPNQGW4LLGJAYDT70M04GQ0LH464F","6","2","2","2","10","15747","2017-09-18 14:08:21","10353"
"A28HB7240OFGEW","caus_thomas_all_dis_v1","3FTYUGLFSUM0RQW8VSDOFE662ZM5DB","8","0","0","3","2","37746","2017-09-18 14:08:28","10354"
"AROEBUDI2L9G9","caus_thomas_all_dis_v1","3SEPORI8WN000XDLI6T2EH5VIVXAZL","8","0","0","2","3","33020","2017-09-18 14:08:28","10355"
"ALZQCQHWYUTP","caus_thomas_all_dis_v1","3WJEQKOXA83351SDAVKAMNLJ5GK1AN","8","0","0","4","7","36938","2017-09-18 14:08:28","10356"
"A35C12CR628WKD","caus_thomas_all_dis_v1","3DHE4R9OCWCB4DNCFZCYNS6RVHBG2V","4","2","2","7","3","13214","2017-09-18 14:08:29","10357"
"AV581SCZZM1YE","caus_thomas_all_dis_v1","3K2755HG5S4STNPX14QX1QXJRT0DF2","8","2","2","8","9","10507","2017-09-18 14:08:31","10358"
"A3KCT51PDCLUFD","caus_thomas_all_dis_v1","3Z2R0DQ0JHFDKZRL94MANPLFI1W2E0","2","1","1","7","4","19858","2017-09-18 14:08:31","10359"
"A1N4O370NJB9U8","caus_thomas_all_dis_v1","3L2IS5HSFAJQYHD0LNZZJVAGFKGNUS","8","1","1","7","10","20436","2017-09-18 14:08:32","10360"
"A2R794P3E8X0MK","caus_thomas_all_dis_v1","354P56DE9K4LGJT9GBNA8X62U8R7SM","8","3","3","5","6","11960","2017-09-18 14:08:32","10361"
"A35C12CR628WKD","caus_thomas_all_dis_v1","3DHE4R9OCWCB4DNCFZCYNS6RVHBG2V","4","3","3","6","6","3502","2017-09-18 14:08:33","10362"
"A2O19SRDLSQDP6","caus_thomas_all_dis_v1","3DPNQGW4LLGJAYDT70M04GQ0LH464F","8","3","3","8","7","11264","2017-09-18 14:08:34","10363"
"A342YLIMT6THWO
","caus_thomas_all_dis_v1","3ZPBJO59KP2C7JG3WUEX4B9W78DDH0","8","1","1","4","10","30059","2017-09-18 14:08:36","10364"
"A35C12CR628WKD","caus_thomas_all_dis_v1","3DHE4R9OCWCB4DNCFZCYNS6RVHBG2V","6","4","4","9","7","2939","2017-09-18 14:08:37","10365"
"ATY2JKVS3OYUV","caus_thomas_all_dis_v1","3KB8R4ZV1E85SQN8YS59OL9VPNOGBX","3","1","1","7","3","32190","2017-09-18 14:08:41","10366"
"AROEBUDI2L9G9","caus_thomas_all_dis_v1","3SEPORI8WN000XDLI6T2EH5VIVXAZL","8","1","1","8","9","16554","2017-09-18 14:08:46","10367"
"A28HB7240OFGEW","caus_thomas_all_dis_v1","3FTYUGLFSUM0RQW8VSDOFE662ZM5DB","8","1","1","2","8","17521","2017-09-18 14:08:47","10368"
"A1TSVP4XC9NTR4","caus_thomas_all_dis_v1","3OHYZ19UGC6O1TZEGXILYJYRYRUAOJ","8","1","1","2","8","36622","2017-09-18 14:08:47","10369"
"A2O19SRDLSQDP6","caus_thomas_all_dis_v1","3DPNQGW4LLGJAYDT70M04GQ0LH464F","8","4","4","6","8","12027","2017-09-18 14:08:47","10370"
"ALZQCQHWYUTP","caus_thomas_all_dis_v1","3WJEQKOXA83351SDAVKAMNLJ5GK1AN","7","1","1","2","5","17569","2017-09-18 14:08:47","10371"
"A2R794P3E8X0MK","caus_thomas_all_dis_v1","354P56DE9K4LGJT9GBNA8X62U8R7SM","5","4","4","3","2","15155","2017-09-18 14:08:48","10372"
"A342YLIMT6THWO
","caus_thomas_all_dis_v1","3ZPBJO59KP2C7JG3WUEX4B9W78DDH0","8","2","2","2","3","18213","2017-09-18 14:08:55","10373"
"A28HB7240OFGEW","caus_thomas_all_dis_v1","3FTYUGLFSUM0RQW8VSDOFE662ZM5DB","8","2","2","8","1","8121","2017-09-18 14:08:56","10374"
"AROEBUDI2L9G9","caus_thomas_all_dis_v1","3SEPORI8WN000XDLI6T2EH5VIVXAZL","8","2","2","7","1","9095","2017-09-18 14:08:56","10375"
"ATY2JKVS3OYUV","caus_thomas_all_dis_v1","3KB8R4ZV1E85SQN8YS59OL9VPNOGBX","8","2","2","3","8","14489","2017-09-18 14:08:57","10376"
"ALZQCQHWYUTP","caus_thomas_all_dis_v1","3WJEQKOXA83351SDAVKAMNLJ5GK1AN","7","2","2","9","8","11434","2017-09-18 14:09:02","10377"
"AROEBUDI2L9G9","caus_thomas_all_dis_v1","3SEPORI8WN000XDLI6T2EH5VIVXAZL","8","3","3","3","10","7232","2017-09-18 14:09:04","10378"
"A2T9GR0UCUVDXG","caus_thomas_all_dis_v1","3EF8EXOTT1WE6UVH41XNFMO2V3E1J3","4","0","0","3","3","21898","2017-09-18 14:09:04","10379"
"A342YLIMT6THWO
","caus_thomas_all_dis_v1","3ZPBJO59KP2C7JG3WUEX4B9W78DDH0","8","3","3","10","8","8560","2017-09-18 14:09:05","10380"
"AT3NSILK1BP46","caus_thomas_all_dis_v1","3RSDURM96AN3LKKS2PT5WTMKXGQYEC","8","0","0","1","4","28966","2017-09-18 14:09:05","10381"
"A3J8F637SP7XIY","caus_thomas_all_dis_v1","3VW6495TLJ11RP1J2Q5Z3WE0FSVYYR","1","0","0","2","9","21509","2017-09-18 14:09:05","10382"
"A28HB7240OFGEW","caus_thomas_all_dis_v1","3FTYUGLFSUM0RQW8VSDOFE662ZM5DB","8","3","3","6","4","8857","2017-09-18 14:09:06","10383"
"A2YO837C0O1E91","caus_thomas_all_dis_v1","3TOK3KHVJTJ6IR1G9U61OSW1XJO7OP","8","2","2","1","9","86562","2017-09-18 14:09:06","10384"
"A1TSVP4XC9NTR4","caus_thomas_all_dis_v1","3OHYZ19UGC6O1TZEGXILYJYRYRUAOJ","8","2","2","1","1","19037","2017-09-18 14:09:07","10385"
"A1N4O370NJB9U8","caus_thomas_all_dis_v1","3L2IS5HSFAJQYHD0LNZZJVAGFKGNUS","8","2","2","3","8","35348","2017-09-18 14:09:08","10386"
"A3KCT51PDCLUFD","caus_thomas_all_dis_v1","3Z2R0DQ0JHFDKZRL94MANPLFI1W2E0","1","2","2","4","6","37691","2017-09-18 14:09:10","10387"
"A3J8F637SP7XIY","caus_thomas_all_dis_v1","3VW6495TLJ11RP1J2Q5Z3WE0FSVYYR","4","1","1","4","8","5055","2017-09-18 14:09:11","10388"
"ATY2JKVS3OYUV","caus_thomas_all_dis_v1","3KB8R4ZV1E85SQN8YS59OL9VPNOGBX","4","3","3","5","4","14505","2017-09-18 14:09:12","10389"
"A1CH6M8KNYMJ92","caus_thomas_all_dis_v1","38JBBYETQOBNND68DI5YG4ID2FSE48","8","0","0","10","1","23887","2017-09-18 14:09:12","10390"
"A342YLIMT6THWO
","caus_thomas_all_dis_v1","3ZPBJO59KP2C7JG3WUEX4B9W78DDH0","8","4","4","1","6","8057","2017-09-18 14:09:13","10391"
"AROEBUDI2L9G9","caus_thomas_all_dis_v1","3SEPORI8WN000XDLI6T2EH5VIVXAZL","8","4","4","1","5","9179","2017-09-18 14:09:14","10392"
"ALZQCQHWYUTP","caus_thomas_all_dis_v1","3WJEQKOXA83351SDAVKAMNLJ5GK1AN","7","3","3","8","3","13005","2017-09-18 14:09:16","10393"
"A3J8F637SP7XIY","caus_thomas_all_dis_v1","3VW6495TLJ11RP1J2Q5Z3WE0FSVYYR","8","2","2","9","3","3209","2017-09-18 14:09:16","10394"
"A2T9GR0UCUVDXG","caus_thomas_all_dis_v1","3EF8EXOTT1WE6UVH41XNFMO2V3E1J3","0","1","1","10","6","11324","2017-09-18 14:09:17","10395"
"A3KCT51PDCLUFD","caus_thomas_all_dis_v1","3Z2R0DQ0JHFDKZRL94MANPLFI1W2E0","0","3","3","1","5","6148","2017-09-18 14:09:17","10396"
"A28HB7240OFGEW","caus_thomas_all_dis_v1","3FTYUGLFSUM0RQW8VSDOFE662ZM5DB","8","4","4","1","9","11061","2017-09-18 14:09:18","10397"
"A3B9OZQTE4US3T","caus_thomas_all_dis_v1","3B2X28YI3WG3VXY2MFWNCUW6V9LB6Q","8","0","0","5","7","35022","2017-09-18 14:09:18","10398"
"A1N4O370NJB9U8","caus_thomas_all_dis_v1","3L2IS5HSFAJQYHD0LNZZJVAGFKGNUS","8","3","3","10","9","9693","2017-09-18 14:09:19","10399"
"A2YO837C0O1E91","caus_thomas_all_dis_v1","3TOK3KHVJTJ6IR1G9U61OSW1XJO7OP","8","3","3","8","8","12283","2017-09-18 14:09:19","10400"
"A3J8F637SP7XIY","caus_thomas_all_dis_v1","3VW6495TLJ11RP1J2Q5Z3WE0FSVYYR","7","3","3","8","5","3332","2017-09-18 14:09:20","10401"
"A1TSVP4XC9NTR4","caus_thomas_all_dis_v1","3OHYZ19UGC6O1TZEGXILYJYRYRUAOJ","8","3","3","10","5","12437","2017-09-18 14:09:20","10402"
"ATY2JKVS3OYUV","caus_thomas_all_dis_v1","3KB8R4ZV1E85SQN8YS59OL9VPNOGBX","7","4","4","4","6","8835","2017-09-18 14:09:22","10403"
"A110KENBXU7SUJ","caus_thomas_all_dis_v1","3DIP6YHAPCTO6ETAPLVBXGYI41OE8F","4","0","0","7","4","24827","2017-09-18 14:09:22","10404"
"A1CH6M8KNYMJ92","caus_thomas_all_dis_v1","38JBBYETQOBNND68DI5YG4ID2FSE48","8","1","1","9","10","9661","2017-09-18 14:09:23","10405"
"AESEZX8S7Z3IC","caus_thomas_all_dis_v1","3AMYWKA6YBNNERNBQK19IEW52846OP","3","0","0","9","3","32628","2017-09-18 14:09:23","10406"
"A3J8F637SP7XIY","caus_thomas_all_dis_v1","3VW6495TLJ11RP1J2Q5Z3WE0FSVYYR","0","4","4","1","10","2807","2017-09-18 14:09:24","10407"
"A3KCT51PDCLUFD","caus_thomas_all_dis_v1","3Z2R0DQ0JHFDKZRL94MANPLFI1W2E0","2","4","4","5","1","7633","2017-09-18 14:09:26","10408"
"ALZQCQHWYUTP","caus_thomas_all_dis_v1","3WJEQKOXA83351SDAVKAMNLJ5GK1AN","7","4","4","10","4","9495","2017-09-18 14:09:26","10409"
"A29XBKJC7OQ1VQ","caus_thomas_all_dis_v1","35GCEFQ6I5P0GCE09RESR9RPCL4Z3D","8","0","0","7","5","31766","2017-09-18 14:09:26","10410"
"A136SBQYT4RFKX","caus_thomas_all_dis_v1","30BUDKLTXDW5JWA8RNO8LWOR2BNE5D","6","0","0","8","5","32061","2017-09-18 14:09:27","10411"
"A2T9GR0UCUVDXG","caus_thomas_all_dis_v1","3EF8EXOTT1WE6UVH41XNFMO2V3E1J3","2","2","2","9","2","9549","2017-09-18 14:09:27","10412"
"A2YO837C0O1E91","caus_thomas_all_dis_v1","3TOK3KHVJTJ6IR1G9U61OSW1XJO7OP","7","4","4","7","7","7237","2017-09-18 14:09:28","10413"
"A6VQ0UN0ETESM","caus_thomas_all_dis_v1","3EFVCAY5L3AWHUF23M62UWBA99KJ85","8","0","0","3","5","77811","2017-09-18 14:09:28","10414"
"A1N4O370NJB9U8","caus_thomas_all_dis_v1","3L2IS5HSFAJQYHD0LNZZJVAGFKGNUS","8","4","4","5","4","8357","2017-09-18 14:09:28","10415"
"A2T9GR0UCUVDXG","caus_thomas_all_dis_v1","3EF8EXOTT1WE6UVH41XNFMO2V3E1J3","3","3","3","6","4","2604","2017-09-18 14:09:31","10416"
"A2PFTBGIF2Q6LJ","caus_thomas_all_dis_v1","3D3VGR7TA0GRELS9ZAKF56PQ34M3RP","7","0","0","5","5","35984","2017-09-18 14:09:33","10417"
"A1TSVP4XC9NTR4","caus_thomas_all_dis_v1","3OHYZ19UGC6O1TZEGXILYJYRYRUAOJ","8","4","4","6","3","12494","2017-09-18 14:09:34","10418"
"A2T9GR0UCUVDXG","caus_thomas_all_dis_v1","3EF8EXOTT1WE6UVH41XNFMO2V3E1J3","4","4","4","4","5","3630","2017-09-18 14:09:36","10419"
"A1CH6M8KNYMJ92","caus_thomas_all_dis_v1","38JBBYETQOBNND68DI5YG4ID2FSE48","8","2","2","6","2","12037","2017-09-18 14:09:36","10420"
"AESEZX8S7Z3IC","caus_thomas_all_dis_v1","3AMYWKA6YBNNERNBQK19IEW52846OP","4","1","1","5","4","12463","2017-09-18 14:09:37","10421"
"A2RR04JS69Z5LE","caus_thomas_all_dis_v1","3Z3ZLGNNSIVR2KD9MVVF0GFL7IK3QO","2","0","0","6","7","23890","2017-09-18 14:09:37","10422"
"AT3NSILK1BP46","caus_thomas_all_dis_v1","3RSDURM96AN3LKKS2PT5WTMKXGQYEC","8","1","1","5","7","30977","2017-09-18 14:09:37","10423"
"A3MWV912LNFD67","caus_thomas_all_dis_v1","3FIUS151DV31J7VJEEXNPW0S50GGGE","8","0","0","7","2","53599","2017-09-18 14:09:38","10424"
"A2RR04JS69Z5LE","caus_thomas_all_dis_v1","3Z3ZLGNNSIVR2KD9MVVF0GFL7IK3QO","1","1","1","9","8","6290","2017-09-18 14:09:40","10425"
"A1I40IZ12GO0G2","caus_thomas_all_dis_v1","34V1S5K3GS2K74J5OVIRLO1G79I96E","8","0","0","2","5","42939","2017-09-18 14:09:40","10426"
"A29XBKJC7OQ1VQ","caus_thomas_all_dis_v1","35GCEFQ6I5P0GCE09RESR9RPCL4Z3D","8","1","1","5","1","12826","2017-09-18 14:09:40","10427"
"A110KENBXU7SUJ","caus_thomas_all_dis_v1","3DIP6YHAPCTO6ETAPLVBXGYI41OE8F","6","1","1","2","2","17259","2017-09-18 14:09:40","10428"
"A16ACBUG1AF169","caus_thomas_all_dis_v1","3U4J9857OECMZXC75P1FI8W2QK5B7P","8","0","0","9","4","40105","2017-09-18 14:09:41","10429"
"A3B9OZQTE4US3T","caus_thomas_all_dis_v1","3B2X28YI3WG3VXY2MFWNCUW6V9LB6Q","8","1","1","3","3","22067","2017-09-18 14:09:41","10430"
"AESEZX8S7Z3IC","caus_thomas_all_dis_v1","3AMYWKA6YBNNERNBQK19IEW52846OP","6","2","2","2","2","4471","2017-09-18 14:09:42","10431"
"A1CH6M8KNYMJ92","caus_thomas_all_dis_v1","38JBBYETQOBNND68DI5YG4ID2FSE48","8","3","3","4","3","6803","2017-09-18 14:09:44","10432"
"AV581SCZZM1YE","caus_thomas_all_dis_v1","3K2755HG5S4STNPX14QX1QXJRT0DF2","6","3","3","1","3","74230","2017-09-18 14:09:46","10433"
"A136SBQYT4RFKX","caus_thomas_all_dis_v1","30BUDKLTXDW5JWA8RNO8LWOR2BNE5D","6","1","1","3","4","18677","2017-09-18 14:09:46","10434"
"AT3NSILK1BP46","caus_thomas_all_dis_v1","3RSDURM96AN3LKKS2PT5WTMKXGQYEC","8","2","2","7","1","9145","2017-09-18 14:09:47","10435"
"A3B9OZQTE4US3T","caus_thomas_all_dis_v1","3B2X28YI3WG3VXY2MFWNCUW6V9LB6Q","7","2","2","7","10","6143","2017-09-18 14:09:48","10436"
"A29XBKJC7OQ1VQ","caus_thomas_all_dis_v1","35GCEFQ6I5P0GCE09RESR9RPCL4Z3D","8","2","2","9","9","8137","2017-09-18 14:09:49","10437"
"A1CH6M8KNYMJ92","caus_thomas_all_dis_v1","38JBBYETQOBNND68DI5YG4ID2FSE48","8","4","4","5","7","4476","2017-09-18 14:09:49","10438"
"A110KENBXU7SUJ","caus_thomas_all_dis_v1","3DIP6YHAPCTO6ETAPLVBXGYI41OE8F","3","2","2","5","9","8577","2017-09-18 14:09:50","10439"
"AESEZX8S7Z3IC","caus_thomas_all_dis_v1","3AMYWKA6YBNNERNBQK19IEW52846OP","1","3","3","3","1","7749","2017-09-18 14:09:51","10440"
"A2PFTBGIF2Q6LJ","caus_thomas_all_dis_v1","3D3VGR7TA0GRELS9ZAKF56PQ34M3RP","7","1","1","9","6","17106","2017-09-18 14:09:51","10441"
"A2D6VL5XE0O4D3","caus_thomas_all_dis_v1","32SVAV9L3FAZF46SXZYTAG0G30Y3AH","4","0","0","1","4","24045","2017-09-18 14:09:54","10442"
"A1I40IZ12GO0G2","caus_thomas_all_dis_v1","34V1S5K3GS2K74J5OVIRLO1G79I96E","0","1","1","10","4","14104","2017-09-18 14:09:55","10443"
"A2RR04JS69Z5LE","caus_thomas_all_dis_v1","3Z3ZLGNNSIVR2KD9MVVF0GFL7IK3QO","2","2","2","3","10","14322","2017-09-18 14:09:55","10444"
"A3B9OZQTE4US3T","caus_thomas_all_dis_v1","3B2X28YI3WG3VXY2MFWNCUW6V9LB6Q","8","3","3","10","2","6748","2017-09-18 14:09:56","10445"
"AV581SCZZM1YE","caus_thomas_all_dis_v1","3K2755HG5S4STNPX14QX1QXJRT0DF2","8","4","4","3","8","9094","2017-09-18 14:09:56","10446"
"A6VQ0UN0ETESM","caus_thomas_all_dis_v1","3EFVCAY5L3AWHUF23M62UWBA99KJ85","8","1","1","5","8","27455","2017-09-18 14:09:56","10447"
"AESEZX8S7Z3IC","caus_thomas_all_dis_v1","3AMYWKA6YBNNERNBQK19IEW52846OP","2","4","4","4","6","4809","2017-09-18 14:09:57","10448"
"A29XBKJC7OQ1VQ","caus_thomas_all_dis_v1","35GCEFQ6I5P0GCE09RESR9RPCL4Z3D","8","3","3","8","4","8477","2017-09-18 14:09:59","10449"
"A16ACBUG1AF169","caus_thomas_all_dis_v1","3U4J9857OECMZXC75P1FI8W2QK5B7P","8","1","1","3","5","17086","2017-09-18 14:09:59","10450"
"A3MWV912LNFD67","caus_thomas_all_dis_v1","3FIUS151DV31J7VJEEXNPW0S50GGGE","8","1","1","9","4","20218","2017-09-18 14:09:59","10451"
"A3B9OZQTE4US3T","caus_thomas_all_dis_v1","3B2X28YI3WG3VXY2MFWNCUW6V9LB6Q","6","4","4","1","5","6351","2017-09-18 14:10:03","10452"
"A2PFTBGIF2Q6LJ","caus_thomas_all_dis_v1","3D3VGR7TA0GRELS9ZAKF56PQ34M3RP","7","2","2","4","4","10835","2017-09-18 14:10:03","10453"
"A110KENBXU7SUJ","caus_thomas_all_dis_v1","3DIP6YHAPCTO6ETAPLVBXGYI41OE8F","2","3","3","3","6","12533","2017-09-18 14:10:03","10454"
"A3QC57KUVJP5EW","caus_thomas_all_dis_v1","3BQU611VFPL7PNL3M2L35YSIXAQ99P","3","0","0","5","6","46907","2017-09-18 14:10:04","10455"
"A2D6VL5XE0O4D3","caus_thomas_all_dis_v1","32SVAV9L3FAZF46SXZYTAG0G30Y3AH","4","1","1","10","7","10630","2017-09-18 14:10:04","10456"
"A1L3937MY09J3I","caus_thomas_all_dis_v1","3TE22NPXPBD5VB9FOCTL7I6MPQY44S","4","0","0","4","3","23902","2017-09-18 14:10:04","10457"
"A2RR04JS69Z5LE","caus_thomas_all_dis_v1","3Z3ZLGNNSIVR2KD9MVVF0GFL7IK3QO","6","3","3","5","4","8448","2017-09-18 14:10:05","10458"
"A29XBKJC7OQ1VQ","caus_thomas_all_dis_v1","35GCEFQ6I5P0GCE09RESR9RPCL4Z3D","8","4","4","2","7","6606","2017-09-18 14:10:06","10459"
"A1I40IZ12GO0G2","caus_thomas_all_dis_v1","34V1S5K3GS2K74J5OVIRLO1G79I96E","6","2","2","7","8","11472","2017-09-18 14:10:08","10460"
"A6VQ0UN0ETESM","caus_thomas_all_dis_v1","3EFVCAY5L3AWHUF23M62UWBA99KJ85","8","2","2","8","9","11929","2017-09-18 14:10:09","10461"
"A3SXW4RPR3NG8A","caus_thomas_all_dis_v1","3DEL4X4EL6MCRKB9XUJXKI7RDM1YXL","1","0","0","2","1","37512","2017-09-18 14:10:09","10462"
"A16ACBUG1AF169","caus_thomas_all_dis_v1","3U4J9857OECMZXC75P1FI8W2QK5B7P","8","2","2","7","6","9647","2017-09-18 14:10:09","10463"
"A110KENBXU7SUJ","caus_thomas_all_dis_v1","3DIP6YHAPCTO6ETAPLVBXGYI41OE8F","7","4","4","8","7","7031","2017-09-18 14:10:12","10464"
"A2RR04JS69Z5LE","caus_thomas_all_dis_v1","3Z3ZLGNNSIVR2KD9MVVF0GFL7IK3QO","4","4","4","8","6","6047","2017-09-18 14:10:12","10465"
"A2PFTBGIF2Q6LJ","caus_thomas_all_dis_v1","3D3VGR7TA0GRELS9ZAKF56PQ34M3RP","7","3","3","7","9","7799","2017-09-18 14:10:12","10466"
"A1L3937MY09J3I","caus_thomas_all_dis_v1","3TE22NPXPBD5VB9FOCTL7I6MPQY44S","4","1","1","7","6","7782","2017-09-18 14:10:13","10467"
"A2D6VL5XE0O4D3","caus_thomas_all_dis_v1","32SVAV9L3FAZF46SXZYTAG0G30Y3AH","4","2","2","9","5","9251","2017-09-18 14:10:14","10468"
"A3MWV912LNFD67","caus_thomas_all_dis_v1","3FIUS151DV31J7VJEEXNPW0S50GGGE","8","2","2","5","3","15491","2017-09-18 14:10:16","10469"
"A3QC57KUVJP5EW","caus_thomas_all_dis_v1","3BQU611VFPL7PNL3M2L35YSIXAQ99P","6","1","1","3","8","14269","2017-09-18 14:10:19","10470"
"A2D6VL5XE0O4D3","caus_thomas_all_dis_v1","32SVAV9L3FAZF46SXZYTAG0G30Y3AH","4","3","3","6","1","4430","2017-09-18 14:10:20","10471"
"A6VQ0UN0ETESM","caus_thomas_all_dis_v1","3EFVCAY5L3AWHUF23M62UWBA99KJ85","8","3","3","10","10","9728","2017-09-18 14:10:20","10472"
"A16ACBUG1AF169","caus_thomas_all_dis_v1","3U4J9857OECMZXC75P1FI8W2QK5B7P","8","3","3","10","2","10222","2017-09-18 14:10:21","10473"
"A2PFTBGIF2Q6LJ","caus_thomas_all_dis_v1","3D3VGR7TA0GRELS9ZAKF56PQ34M3RP","8","4","4","10","1","7984","2017-09-18 14:10:21","10474"
"A1L3937MY09J3I","caus_thomas_all_dis_v1","3TE22NPXPBD5VB9FOCTL7I6MPQY44S","8","2","2","2","10","7527","2017-09-18 14:10:22","10475"
"A3PIAHR6PGXZNT","caus_thomas_all_dis_v1","3FUI0JHJPXZZVJ77OKJJN8MAXQ633L","4","0","0","2","5","40912","2017-09-18 14:10:23","10476"
"A1I40IZ12GO0G2","caus_thomas_all_dis_v1","34V1S5K3GS2K74J5OVIRLO1G79I96E","3","3","3","9","7","14494","2017-09-18 14:10:23","10477"
"A2D6VL5XE0O4D3","caus_thomas_all_dis_v1","32SVAV9L3FAZF46SXZYTAG0G30Y3AH","4","4","4","3","3","4744","2017-09-18 14:10:25","10478"
"A12702RT8H45H8","caus_thomas_all_dis_v1","3PXX5PX6LXZ4IZA5CSDZSZYSRSBBAG","8","0","0","9","4","27889","2017-09-18 14:10:26","10479"
"A6VQ0UN0ETESM","caus_thomas_all_dis_v1","3EFVCAY5L3AWHUF23M62UWBA99KJ85","8","4","4","7","6","7783","2017-09-18 14:10:29","10480"
"A1L3937MY09J3I","caus_thomas_all_dis_v1","3TE22NPXPBD5VB9FOCTL7I6MPQY44S","2","3","3","8","1","6488","2017-09-18 14:10:29","10481"
"A3QC57KUVJP5EW","caus_thomas_all_dis_v1","3BQU611VFPL7PNL3M2L35YSIXAQ99P","8","2","2","7","10","9530","2017-09-18 14:10:30","10482"
"A3SXW4RPR3NG8A","caus_thomas_all_dis_v1","3DEL4X4EL6MCRKB9XUJXKI7RDM1YXL","1","1","1","9","3","19521","2017-09-18 14:10:30","10483"
"A3MWV912LNFD67","caus_thomas_all_dis_v1","3FIUS151DV31J7VJEEXNPW0S50GGGE","8","3","3","6","7","14994","2017-09-18 14:10:32","10484"
"A1I40IZ12GO0G2","caus_thomas_all_dis_v1","34V1S5K3GS2K74J5OVIRLO1G79I96E","4","4","4","8","2","8943","2017-09-18 14:10:33","10485"
"A16ACBUG1AF169","caus_thomas_all_dis_v1","3U4J9857OECMZXC75P1FI8W2QK5B7P","8","4","4","2","7","12023","2017-09-18 14:10:34","10486"
"AOT6EQEDZ4HYI","caus_thomas_all_dis_v1","3IXEICO792K3RJSJM1N8CO2S1GL6TB","0","0","0","5","10","53831","2017-09-18 14:10:35","10487"
"A1L3937MY09J3I","caus_thomas_all_dis_v1","3TE22NPXPBD5VB9FOCTL7I6MPQY44S","0","4","4","10","7","5624","2017-09-18 14:10:36","10488"
"A3PIAHR6PGXZNT","caus_thomas_all_dis_v1","3FUI0JHJPXZZVJ77OKJJN8MAXQ633L","4","1","1","6","6","12057","2017-09-18 14:10:36","10489"
"A136SBQYT4RFKX","caus_thomas_all_dis_v1","30BUDKLTXDW5JWA8RNO8LWOR2BNE5D","7","2","2","4","3","49688","2017-09-18 14:10:37","10490"
"A3QC57KUVJP5EW","caus_thomas_all_dis_v1","3BQU611VFPL7PNL3M2L35YSIXAQ99P","4","3","3","4","5","7388","2017-09-18 14:10:38","10491"
"A12702RT8H45H8","caus_thomas_all_dis_v1","3PXX5PX6LXZ4IZA5CSDZSZYSRSBBAG","8","1","1","10","1","14808","2017-09-18 14:10:42","10492"
"A3PIAHR6PGXZNT","caus_thomas_all_dis_v1","3FUI0JHJPXZZVJ77OKJJN8MAXQ633L","4","2","2","1","1","5173","2017-09-18 14:10:42","10493"
"A3SXW4RPR3NG8A","caus_thomas_all_dis_v1","3DEL4X4EL6MCRKB9XUJXKI7RDM1YXL","1","2","2","5","8","11506","2017-09-18 14:10:42","10494"
"A3N8113KOPLDDM","caus_thomas_all_dis_v1","3VFJCI1K4Z0S8X4XUPRZO0EZ79RGRA","1","0","0","7","10","55570","2017-09-18 14:10:44","10495"
"AREM7YQQNJ6PL","caus_thomas_all_dis_v1","3EJPLAJKEMHZDV1ISTCQYC39MC6Z6J","8","0","0","2","7","32644","2017-09-18 14:10:45","10496"
" A278NFL4DYN322
","caus_thomas_all_dis_v1","3JJVG1YBEBY7CTYOHWMIKOI6ZEAB5A","7","0","0","1","1","13548","2017-09-18 14:10:45","10497"
"A136SBQYT4RFKX","caus_thomas_all_dis_v1","30BUDKLTXDW5JWA8RNO8LWOR2BNE5D","7","3","3","2","7","9610","2017-09-18 14:10:48","10498"
"A3MWV912LNFD67","caus_thomas_all_dis_v1","3FIUS151DV31J7VJEEXNPW0S50GGGE","8","4","4","3","10","15538","2017-09-18 14:10:48","10499"
"A3QC57KUVJP5EW","caus_thomas_all_dis_v1","3BQU611VFPL7PNL3M2L35YSIXAQ99P","0","4","4","6","1","9210","2017-09-18 14:10:48","10500"
"A12702RT8H45H8","caus_thomas_all_dis_v1","3PXX5PX6LXZ4IZA5CSDZSZYSRSBBAG","8","2","2","5","3","8430","2017-09-18 14:10:51","10501"
"A3SXW4RPR3NG8A","caus_thomas_all_dis_v1","3DEL4X4EL6MCRKB9XUJXKI7RDM1YXL","1","3","3","4","9","8584","2017-09-18 14:10:52","10502"
"A3PIAHR6PGXZNT","caus_thomas_all_dis_v1","3FUI0JHJPXZZVJ77OKJJN8MAXQ633L","4","3","3","10","3","10846","2017-09-18 14:10:54","10503"
"A136SBQYT4RFKX","caus_thomas_all_dis_v1","30BUDKLTXDW5JWA8RNO8LWOR2BNE5D","7","4","4","1","10","5876","2017-09-18 14:10:55","10504"
" A278NFL4DYN322
","caus_thomas_all_dis_v1","3JJVG1YBEBY7CTYOHWMIKOI6ZEAB5A","5","1","1","5","8","11254","2017-09-18 14:10:58","10505"
"A3N8113KOPLDDM","caus_thomas_all_dis_v1","3VFJCI1K4Z0S8X4XUPRZO0EZ79RGRA","1","1","1","2","3","14775","2017-09-18 14:10:59","10506"
"A12702RT8H45H8","caus_thomas_all_dis_v1","3PXX5PX6LXZ4IZA5CSDZSZYSRSBBAG","8","3","3","7","9","8385","2017-09-18 14:11:00","10507"
"AREM7YQQNJ6PL","caus_thomas_all_dis_v1","3EJPLAJKEMHZDV1ISTCQYC39MC6Z6J","8","1","1","5","1","15017","2017-09-18 14:11:01","10508"
"A3SXW4RPR3NG8A","caus_thomas_all_dis_v1","3DEL4X4EL6MCRKB9XUJXKI7RDM1YXL","1","4","4","6","10","8512","2017-09-18 14:11:02","10509"
"AOT6EQEDZ4HYI","caus_thomas_all_dis_v1","3IXEICO792K3RJSJM1N8CO2S1GL6TB","0","1","1","4","7","27608","2017-09-18 14:11:03","10510"
"A3PIAHR6PGXZNT","caus_thomas_all_dis_v1","3FUI0JHJPXZZVJ77OKJJN8MAXQ633L","4","4","4","8","4","8902","2017-09-18 14:11:04","10511"
"A12702RT8H45H8","caus_thomas_all_dis_v1","3PXX5PX6LXZ4IZA5CSDZSZYSRSBBAG","8","4","4","4","6","4428","2017-09-18 14:11:06","10512"
"A214PGGAZWG2BV","caus_thomas_all_dis_v1","3KXIR214I4HVSXUSKYAXE39O5C242W","8","0","0","9","8","46438","2017-09-18 14:11:08","10513"
"AT3NSILK1BP46","caus_thomas_all_dis_v1","3RSDURM96AN3LKKS2PT5WTMKXGQYEC","8","3","3","2","6","81272","2017-09-18 14:11:09","10514"
"AREM7YQQNJ6PL","caus_thomas_all_dis_v1","3EJPLAJKEMHZDV1ISTCQYC39MC6Z6J","8","2","2","3","4","8260","2017-09-18 14:11:10","10515"
"A3N8113KOPLDDM","caus_thomas_all_dis_v1","3VFJCI1K4Z0S8X4XUPRZO0EZ79RGRA","1","2","2","5","8","11259","2017-09-18 14:11:12","10516"
"A13FUEPWBCLBUY","caus_thomas_all_dis_v1",,"7","0","0","9","4","35864","2017-09-18 14:11:17","10517"
"AREM7YQQNJ6PL","caus_thomas_all_dis_v1","3EJPLAJKEMHZDV1ISTCQYC39MC6Z6J","8","3","3","7","6","9355","2017-09-18 14:11:20","10518"
"AOT6EQEDZ4HYI","caus_thomas_all_dis_v1","3IXEICO792K3RJSJM1N8CO2S1GL6TB","0","2","2","9","2","18166","2017-09-18 14:11:23","10519"
"A3N8113KOPLDDM","caus_thomas_all_dis_v1","3VFJCI1K4Z0S8X4XUPRZO0EZ79RGRA","1","3","3","1","9","13008","2017-09-18 14:11:26","10520"
"A14ADQ7RUN6TDY","caus_thomas_all_dis_v1","3KKG4CDWKIZ6SHFR57PCOQH2BIC49O","4","0","0","7","9","28252","2017-09-18 14:11:29","10521"
"AREM7YQQNJ6PL","caus_thomas_all_dis_v1","3EJPLAJKEMHZDV1ISTCQYC39MC6Z6J","8","4","4","9","5","8141","2017-09-18 14:11:29","10522"
" A278NFL4DYN322
","caus_thomas_all_dis_v1","3JJVG1YBEBY7CTYOHWMIKOI6ZEAB5A","4","2","2","8","7","33199","2017-09-18 14:11:32","10523"
"AOT6EQEDZ4HYI","caus_thomas_all_dis_v1","3IXEICO792K3RJSJM1N8CO2S1GL6TB","0","3","3","8","6","9620","2017-09-18 14:11:33","10524"
"A3N8113KOPLDDM","caus_thomas_all_dis_v1","3VFJCI1K4Z0S8X4XUPRZO0EZ79RGRA","1","4","4","9","6","7184","2017-09-18 14:11:34","10525"
"A362CV8OOYJA6W","caus_thomas_all_dis_v1","3DR23U6WE5F74YLYSJ66OCU5IE9ET4","5","0","0","9","10","10646","2017-09-18 14:11:38","10526"
" A278NFL4DYN322
","caus_thomas_all_dis_v1","3JJVG1YBEBY7CTYOHWMIKOI6ZEAB5A","2","3","3","9","4","8222","2017-09-18 14:11:41","10527"
"A13FUEPWBCLBUY","caus_thomas_all_dis_v1",,"3","1","1","3","7","24589","2017-09-18 14:11:43","10528"
"AOT6EQEDZ4HYI","caus_thomas_all_dis_v1","3IXEICO792K3RJSJM1N8CO2S1GL6TB","0","4","4","1","9","10519","2017-09-18 14:11:45","10529"
"A362CV8OOYJA6W","caus_thomas_all_dis_v1","3DR23U6WE5F74YLYSJ66OCU5IE9ET4","2","1","1","5","9","6028","2017-09-18 14:11:45","10530"
"A1G69P73SBVUR4","caus_thomas_all_dis_v1","34MAJL3QP4OKDFQBOYO2XDEGBQ2437","8","0","0","9","5","80023","2017-09-18 14:11:46","10531"
"AT3NSILK1BP46","caus_thomas_all_dis_v1","3RSDURM96AN3LKKS2PT5WTMKXGQYEC","8","4","4","3","8","36726","2017-09-18 14:11:47","10532"
"A214PGGAZWG2BV","caus_thomas_all_dis_v1","3KXIR214I4HVSXUSKYAXE39O5C242W","8","1","1","2","9","39084","2017-09-18 14:11:48","10533"
" A278NFL4DYN322
","caus_thomas_all_dis_v1","3JJVG1YBEBY7CTYOHWMIKOI6ZEAB5A","5","4","4","4","9","8514","2017-09-18 14:11:51","10534"
"A2N9AKAOR17XB3
","caus_thomas_all_dis_v1","3UXUOQ9OKEYHGN7FZB1JNXCW82K7AQ","3","0","0","4","7","40221","2017-09-18 14:11:52","10535"
"AUK9BH35CQ4G7","caus_thomas_all_dis_v1","3B2X28YI3WG3VXY2MFWNCUW6V9L6BL","8","0","0","7","9","218236","2017-09-18 14:11:54","10536"
"A362CV8OOYJA6W","caus_thomas_all_dis_v1","3DR23U6WE5F74YLYSJ66OCU5IE9ET4","0","2","2","1","6","7673","2017-09-18 14:11:54","10537"
"A214PGGAZWG2BV","caus_thomas_all_dis_v1","3KXIR214I4HVSXUSKYAXE39O5C242W","8","2","2","4","4","13572","2017-09-18 14:12:02","10538"
"A362CV8OOYJA6W","caus_thomas_all_dis_v1","3DR23U6WE5F74YLYSJ66OCU5IE9ET4","2","3","3","2","5","8976","2017-09-18 14:12:04","10539"
"A362CV8OOYJA6W","caus_thomas_all_dis_v1","3DR23U6WE5F74YLYSJ66OCU5IE9ET4","2","4","4","6","1","3041","2017-09-18 14:12:08","10540"
"A1G69P73SBVUR4","caus_thomas_all_dis_v1","34MAJL3QP4OKDFQBOYO2XDEGBQ2437","8","1","1","2","9","22971","2017-09-18 14:12:10","10541"
"A2N9AKAOR17XB3
","caus_thomas_all_dis_v1","3UXUOQ9OKEYHGN7FZB1JNXCW82K7AQ","6","1","1","3","10","20376","2017-09-18 14:12:14","10542"
"A36PL5KK0B3XKQ","caus_thomas_all_dis_v1","36DSNE9QZ5ZZ2M2IA3VYRI1AOEOOJD","7","0","0","8","2","39767","2017-09-18 14:12:18","10543"
"A214PGGAZWG2BV","caus_thomas_all_dis_v1","3KXIR214I4HVSXUSKYAXE39O5C242W","8","3","3","7","7","15366","2017-09-18 14:12:19","10544"
"A2XUADP5L61HQ5","caus_thomas_all_dis_v1","3JNQLM5FT4NRQ51DQQ9E0KBZRYX2LN","5","0","0","1","1","121074","2017-09-18 14:12:21","10545"
"A23SGBJULXN5DO","caus_thomas_all_dis_v1","3KYQYYSHYV8MZ02Q079NOK6XJURODZ","5","0","0","6","3","32749","2017-09-18 14:12:22","10546"
"A14ADQ7RUN6TDY","caus_thomas_all_dis_v1","3KKG4CDWKIZ6SHFR57PCOQH2BIC49O","3","1","1","10","7","53432","2017-09-18 14:12:23","10547"
"A2N9AKAOR17XB3
","caus_thomas_all_dis_v1","3UXUOQ9OKEYHGN7FZB1JNXCW82K7AQ","7","2","2","8","2","11698","2017-09-18 14:12:26","10548"
"A10DGGOQ9N186P
","caus_thomas_all_dis_v1","337RC3OW0530NWZFE0TP2P8AOWQLVE","6","0","0","2","7","64820","2017-09-18 14:12:28","10549"
"A1G69P73SBVUR4","caus_thomas_all_dis_v1","34MAJL3QP4OKDFQBOYO2XDEGBQ2437","8","2","2","5","8","17489","2017-09-18 14:12:28","10550"
"A23SGBJULXN5DO","caus_thomas_all_dis_v1","3KYQYYSHYV8MZ02Q079NOK6XJURODZ","1","1","1","1","5","6722","2017-09-18 14:12:29","10551"
"A118Y4ND7AFS2J","caus_thomas_all_dis_v1","3570Y55XZPK15YGJ8KJTWW7WAW6GYC","8","0","0","1","2","87261","2017-09-18 14:12:30","10552"
"A214PGGAZWG2BV","caus_thomas_all_dis_v1","3KXIR214I4HVSXUSKYAXE39O5C242W","8","4","4","10","1","13305","2017-09-18 14:12:33","10553"
"A23SGBJULXN5DO","caus_thomas_all_dis_v1","3KYQYYSHYV8MZ02Q079NOK6XJURODZ","5","2","2","4","7","3866","2017-09-18 14:12:34","10554"
"A14ADQ7RUN6TDY","caus_thomas_all_dis_v1","3KKG4CDWKIZ6SHFR57PCOQH2BIC49O","3","2","2","6","3","10731","2017-09-18 14:12:35","10555"
"A2XUADP5L61HQ5","caus_thomas_all_dis_v1","3JNQLM5FT4NRQ51DQQ9E0KBZRYX2LN","5","1","1","2","4","13193","2017-09-18 14:12:36","10556"
"A36PL5KK0B3XKQ","caus_thomas_all_dis_v1","36DSNE9QZ5ZZ2M2IA3VYRI1AOEOOJD","7","1","1","6","4","18845","2017-09-18 14:12:38","10557"
"A14ADQ7RUN6TDY","caus_thomas_all_dis_v1","3KKG4CDWKIZ6SHFR57PCOQH2BIC49O","3","3","3","1","5","4163","2017-09-18 14:12:40","10558"
"AUK9BH35CQ4G7","caus_thomas_all_dis_v1","3B2X28YI3WG3VXY2MFWNCUW6V9L6BL","8","1","1","3","3","45633","2017-09-18 14:12:41","10559"
"A23SGBJULXN5DO","caus_thomas_all_dis_v1","3KYQYYSHYV8MZ02Q079NOK6XJURODZ","8","3","3","9","2","5983","2017-09-18 14:12:41","10560"
"A2N9AKAOR17XB3
","caus_thomas_all_dis_v1","3UXUOQ9OKEYHGN7FZB1JNXCW82K7AQ","5","3","3","5","8","14137","2017-09-18 14:12:41","10561"
"A29ERTCD6HF72I","caus_thomas_all_dis_v1","3Z4GS9HPNVBZXL9HS8PZD6A67UE77Z","6","0","0","10","2","103585","2017-09-18 14:12:43","10562"
"A1G69P73SBVUR4","caus_thomas_all_dis_v1","34MAJL3QP4OKDFQBOYO2XDEGBQ2437","8","3","3","4","6","13664","2017-09-18 14:12:43","10563"
"A1PMZUBGXFANCI","caus_thomas_all_dis_v1","3R5F3LQFV2LP217MSPYKFCP07C1OZY","5","0","0","5","4","20198","2017-09-18 14:12:43","10564"
"A2XUADP5L61HQ5","caus_thomas_all_dis_v1","3JNQLM5FT4NRQ51DQQ9E0KBZRYX2LN","5","2","2","9","3","8468","2017-09-18 14:12:45","10565"
"A23SGBJULXN5DO","caus_thomas_all_dis_v1","3KYQYYSHYV8MZ02Q079NOK6XJURODZ","5","4","4","7","4","3465","2017-09-18 14:12:46","10566"
"A1TCRUY62WUUDM
","caus_thomas_all_dis_v1","32SCWG5HIH55ZRZC5KEO7E1VCD06P6","8","0","0","1","5","66260","2017-09-18 14:12:46","10567"
"A118Y4ND7AFS2J","caus_thomas_all_dis_v1","3570Y55XZPK15YGJ8KJTWW7WAW6GYC","8","1","1","2","10","15619","2017-09-18 14:12:47","10568"
"A14ADQ7RUN6TDY","caus_thomas_all_dis_v1","3KKG4CDWKIZ6SHFR57PCOQH2BIC49O","3","4","4","2","6","5523","2017-09-18 14:12:47","10569"
"A36PL5KK0B3XKQ","caus_thomas_all_dis_v1","36DSNE9QZ5ZZ2M2IA3VYRI1AOEOOJD","8","2","2","10","8","9014","2017-09-18 14:12:48","10570"
" A2M4YIC3XU2693","caus_thomas_all_dis_v1","3TS1AR6UQQFCCEONARNB1YNN5IX7F3","8","0","0","7","9","50634","2017-09-18 14:12:49","10571"
"A2XUADP5L61HQ5","caus_thomas_all_dis_v1","3JNQLM5FT4NRQ51DQQ9E0KBZRYX2LN","5","3","3","5","6","4034","2017-09-18 14:12:50","10572"
"A2N9AKAOR17XB3
","caus_thomas_all_dis_v1","3UXUOQ9OKEYHGN7FZB1JNXCW82K7AQ","7","4","4","9","4","8129","2017-09-18 14:12:50","10573"
"A2P4PPKOHX5UVI","caus_thomas_all_dis_v1","3QIYRE09Y3IAPKM2JZPF8T5J4NJ1N7","4","0","0","5","8","16087","2017-09-18 14:12:51","10574"
"A1PMZUBGXFANCI","caus_thomas_all_dis_v1","3R5F3LQFV2LP217MSPYKFCP07C1OZY","2","1","1","2","6","8796","2017-09-18 14:12:53","10575"
"A2XUADP5L61HQ5","caus_thomas_all_dis_v1","3JNQLM5FT4NRQ51DQQ9E0KBZRYX2LN","5","4","4","4","7","6424","2017-09-18 14:12:58","10576"
"A1G69P73SBVUR4","caus_thomas_all_dis_v1","34MAJL3QP4OKDFQBOYO2XDEGBQ2437","8","4","4","8","4","14017","2017-09-18 14:12:58","10577"
"A2P4PPKOHX5UVI","caus_thomas_all_dis_v1","3QIYRE09Y3IAPKM2JZPF8T5J4NJ1N7","4","1","1","6","7","7651","2017-09-18 14:13:00","10578"
"A118Y4ND7AFS2J","caus_thomas_all_dis_v1","3570Y55XZPK15YGJ8KJTWW7WAW6GYC","8","2","2","7","4","13399","2017-09-18 14:13:01","10579"
"A1PMZUBGXFANCI","caus_thomas_all_dis_v1","3R5F3LQFV2LP217MSPYKFCP07C1OZY","3","2","2","6","8","8082","2017-09-18 14:13:02","10580"
"A36PL5KK0B3XKQ","caus_thomas_all_dis_v1","36DSNE9QZ5ZZ2M2IA3VYRI1AOEOOJD","4","3","3","5","10","13580","2017-09-18 14:13:02","10581"
"A2P4PPKOHX5UVI","caus_thomas_all_dis_v1","3QIYRE09Y3IAPKM2JZPF8T5J4NJ1N7","4","2","2","2","2","3541","2017-09-18 14:13:05","10582"
"A1PMZUBGXFANCI","caus_thomas_all_dis_v1","3R5F3LQFV2LP217MSPYKFCP07C1OZY","5","3","3","8","7","6040","2017-09-18 14:13:09","10583"
"A118Y4ND7AFS2J","caus_thomas_all_dis_v1","3570Y55XZPK15YGJ8KJTWW7WAW6GYC","8","3","3","6","6","9046","2017-09-18 14:13:11","10584"
"A2P4PPKOHX5UVI","caus_thomas_all_dis_v1","3QIYRE09Y3IAPKM2JZPF8T5J4NJ1N7","4","3","3","4","9","5566","2017-09-18 14:13:11","10585"
"A36PL5KK0B3XKQ","caus_thomas_all_dis_v1","36DSNE9QZ5ZZ2M2IA3VYRI1AOEOOJD","2","4","4","4","7","10549","2017-09-18 14:13:14","10586"
"A2P4PPKOHX5UVI","caus_thomas_all_dis_v1","3QIYRE09Y3IAPKM2JZPF8T5J4NJ1N7","4","4","4","3","3","3084","2017-09-18 14:13:16","10587"
"AUK9BH35CQ4G7","caus_thomas_all_dis_v1","3B2X28YI3WG3VXY2MFWNCUW6V9L6BL","8","2","2","4","8","35205","2017-09-18 14:13:17","10588"
"A1PMZUBGXFANCI","caus_thomas_all_dis_v1","3R5F3LQFV2LP217MSPYKFCP07C1OZY","8","4","4","9","5","6722","2017-09-18 14:13:17","10589"
"A118Y4ND7AFS2J","caus_thomas_all_dis_v1","3570Y55XZPK15YGJ8KJTWW7WAW6GYC","8","4","4","8","3","7844","2017-09-18 14:13:20","10590"
"A1TCRUY62WUUDM
","caus_thomas_all_dis_v1","32SCWG5HIH55ZRZC5KEO7E1VCD06P6","8","1","1","9","6","34107","2017-09-18 14:13:21","10591"
"A2NJ7N8INZOB00","caus_thomas_all_dis_v1","35LDD5557A56D3NOF8GX0TCI839MKV","8","0","0","7","5","26964","2017-09-18 14:13:30","10592"
"A1TCRUY62WUUDM
","caus_thomas_all_dis_v1","32SCWG5HIH55ZRZC5KEO7E1VCD06P6","8","2","2","2","2","16517","2017-09-18 14:13:39","10593"
"A2ZLJ54OLKRIN3","caus_thomas_all_dis_v1","3GA6AFUKOOPEPRE6358LR2NKGVOH36","8","0","0","10","4","44326","2017-09-18 14:13:40","10594"
" A2M4YIC3XU2693","caus_thomas_all_dis_v1","3TS1AR6UQQFCCEONARNB1YNN5IX7F3","0","1","1","1","10","54391","2017-09-18 14:13:45","10595"
"A2NJ7N8INZOB00","caus_thomas_all_dis_v1","35LDD5557A56D3NOF8GX0TCI839MKV","8","1","1","10","8","13543","2017-09-18 14:13:45","10596"
"AUK9BH35CQ4G7","caus_thomas_all_dis_v1","3B2X28YI3WG3VXY2MFWNCUW6V9L6BL","8","3","3","8","5","29833","2017-09-18 14:13:48","10597"
"A1BLQCLUALGX78","caus_thomas_all_dis_v1","3WJEQKOXA83351SDAVKAMNLJ5GKA1W","7","0","0","1","2","69890","2017-09-18 14:13:51","10598"
"A29ERTCD6HF72I","caus_thomas_all_dis_v1","3Z4GS9HPNVBZXL9HS8PZD6A67UE77Z","5","1","1","1","5","67603","2017-09-18 14:13:52","10599"
"A2NJ7N8INZOB00","caus_thomas_all_dis_v1","35LDD5557A56D3NOF8GX0TCI839MKV","8","2","2","1","9","7473","2017-09-18 14:13:53","10600"
"A1TCRUY62WUUDM
","caus_thomas_all_dis_v1","32SCWG5HIH55ZRZC5KEO7E1VCD06P6","8","3","3","10","10","14200","2017-09-18 14:13:54","10601"
"A2ZLJ54OLKRIN3","caus_thomas_all_dis_v1","3GA6AFUKOOPEPRE6358LR2NKGVOH36","6","1","1","7","5","15496","2017-09-18 14:13:58","10602"
"A2NG2CCBMVEBIA","caus_thomas_all_dis_v1","3XXU1SWE8MW3YC7VECGA8I290OEA0T","8","0","0","9","6","27022","2017-09-18 14:14:00","10603"
"A10DGGOQ9N186P
","caus_thomas_all_dis_v1","337RC3OW0530NWZFE0TP2P8AOWQLVE","1","0","0","3","6","20981","2017-09-18 14:14:00","10604"
"A2NJ7N8INZOB00","caus_thomas_all_dis_v1","35LDD5557A56D3NOF8GX0TCI839MKV","8","3","3","6","6","6370","2017-09-18 14:14:01","10605"
"A1BLQCLUALGX78","caus_thomas_all_dis_v1","3WJEQKOXA83351SDAVKAMNLJ5GKA1W","7","1","1","6","8","11280","2017-09-18 14:14:04","10606"
"A5BEH1IONAYMB","caus_thomas_all_dis_v1","3IHR8NYAM72RK4VYMWL9AGHHGMU4PJ","5","0","0","1","2","50705","2017-09-18 14:14:04","10607"
"A2K2A7R5OSS0QM","caus_thomas_all_dis_v1","351SEKWQS0IYZXHENRUAWGHSOUCMDI","1","0","0","4","9","40406","2017-09-18 14:14:06","10608"
"AE7CNI1N00155","caus_thomas_all_dis_v1","3JC6VJ2SABK2TJTWBIMMPDY0HWPA5E","8","0","0","2","10","57673","2017-09-18 14:14:06","10609"
"A1TCRUY62WUUDM
","caus_thomas_all_dis_v1","32SCWG5HIH55ZRZC5KEO7E1VCD06P6","8","4","4","5","1","13225","2017-09-18 14:14:08","10610"
"A29ERTCD6HF72I","caus_thomas_all_dis_v1","3Z4GS9HPNVBZXL9HS8PZD6A67UE77Z","5","2","2","5","6","16829","2017-09-18 14:14:09","10611"
" A2M4YIC3XU2693","caus_thomas_all_dis_v1","3TS1AR6UQQFCCEONARNB1YNN5IX7F3","6","2","2","5","6","23850","2017-09-18 14:14:09","10612"
"A2ZLJ54OLKRIN3","caus_thomas_all_dis_v1","3GA6AFUKOOPEPRE6358LR2NKGVOH36","0","2","2","1","8","12115","2017-09-18 14:14:10","10613"
"A2NJ7N8INZOB00","caus_thomas_all_dis_v1","35LDD5557A56D3NOF8GX0TCI839MKV","8","4","4","5","4","10361","2017-09-18 14:14:12","10614"
"A2NG2CCBMVEBIA","caus_thomas_all_dis_v1","3XXU1SWE8MW3YC7VECGA8I290OEA0T","8","1","1","5","4","12383","2017-09-18 14:14:14","10615"
"A10DGGOQ9N186P
","caus_thomas_all_dis_v1","337RC3OW0530NWZFE0TP2P8AOWQLVE","7","1","1","5","1","14970","2017-09-18 14:14:16","10616"
"AUK9BH35CQ4G7","caus_thomas_all_dis_v1","3B2X28YI3WG3VXY2MFWNCUW6V9L6BL","8","4","4","2","4","30906","2017-09-18 14:14:19","10617"
"A1BLQCLUALGX78","caus_thomas_all_dis_v1","3WJEQKOXA83351SDAVKAMNLJ5GKA1W","4","2","2","10","4","14997","2017-09-18 14:14:20","10618"
" A2M4YIC3XU2693","caus_thomas_all_dis_v1","3TS1AR6UQQFCCEONARNB1YNN5IX7F3","7","3","3","8","7","11813","2017-09-18 14:14:22","10619"
"AE7CNI1N00155","caus_thomas_all_dis_v1","3JC6VJ2SABK2TJTWBIMMPDY0HWPA5E","0","1","1","8","1","16081","2017-09-18 14:14:22","10620"
"A11EOU75NFP39H","caus_thomas_all_dis_v1","3UXUOQ9OKEYHGN7FZB1JNXCW82KA7T","8","0","0","8","1","67924","2017-09-18 14:14:23","10621"
"A2NG2CCBMVEBIA","caus_thomas_all_dis_v1","3XXU1SWE8MW3YC7VECGA8I290OEA0T","8","2","2","8","3","9374","2017-09-18 14:14:24","10622"
"A5BEH1IONAYMB","caus_thomas_all_dis_v1","3IHR8NYAM72RK4VYMWL9AGHHGMU4PJ","5","1","1","5","7","19667","2017-09-18 14:14:25","10623"
"A2ZLJ54OLKRIN3","caus_thomas_all_dis_v1","3GA6AFUKOOPEPRE6358LR2NKGVOH36","6","3","3","6","1","14389","2017-09-18 14:14:26","10624"
"A16Q5SHETG2L0G","caus_thomas_all_dis_v1","3L4PIM1GQTHSUOPXOVD5V0L3C5HRYJ","5","0","0","5","7","7640","2017-09-18 14:14:29","10625"
"A29ERTCD6HF72I","caus_thomas_all_dis_v1","3Z4GS9HPNVBZXL9HS8PZD6A67UE77Z","5","3","3","2","4","18896","2017-09-18 14:14:29","10626"
"A1BLQCLUALGX78","caus_thomas_all_dis_v1","3WJEQKOXA83351SDAVKAMNLJ5GKA1W","5","3","3","8","9","10165","2017-09-18 14:14:31","10627"
"A3E4DNVERAYBI4","caus_thomas_all_dis_v1","34T446B1C0FRRR4TYQC1EDSX0RZC0X","8","0","0","6","4","23301","2017-09-18 14:14:32","10628"
"A3DFL72CC0P7UE","caus_thomas_all_dis_v1","3BWI6RSP7GAK60ORFG35JG2NTHI7EL","8","0","0","1","9","42475","2017-09-18 14:14:32","10629"
"A20NITCOBY4775","caus_thomas_all_dis_v1","3D4CH1LGEAUM4X8B08RDXFE51NLG9N","8","0","0","9","5","42858","2017-09-18 14:14:32","10630"
"A16Q5SHETG2L0G","caus_thomas_all_dis_v1","3L4PIM1GQTHSUOPXOVD5V0L3C5HRYJ","4","1","1","7","1","3754","2017-09-18 14:14:34","10631"
"A2NG2CCBMVEBIA","caus_thomas_all_dis_v1","3XXU1SWE8MW3YC7VECGA8I290OEA0T","7","3","3","7","5","10440","2017-09-18 14:14:35","10632"
"A16Q5SHETG2L0G","caus_thomas_all_dis_v1","3L4PIM1GQTHSUOPXOVD5V0L3C5HRYJ","5","2","2","8","4","1824","2017-09-18 14:14:37","10633"
" A2M4YIC3XU2693","caus_thomas_all_dis_v1","3TS1AR6UQQFCCEONARNB1YNN5IX7F3","0","4","4","10","8","13719","2017-09-18 14:14:37","10634"
"A1BLQCLUALGX78","caus_thomas_all_dis_v1","3WJEQKOXA83351SDAVKAMNLJ5GKA1W","7","4","4","5","1","7185","2017-09-18 14:14:39","10635"
"A29ERTCD6HF72I","caus_thomas_all_dis_v1","3Z4GS9HPNVBZXL9HS8PZD6A67UE77Z","5","4","4","4","7","10548","2017-09-18 14:14:41","10636"
"AE7CNI1N00155","caus_thomas_all_dis_v1","3JC6VJ2SABK2TJTWBIMMPDY0HWPA5E","8","2","2","5","9","18260","2017-09-18 14:14:42","10637"
"A10DGGOQ9N186P
","caus_thomas_all_dis_v1","337RC3OW0530NWZFE0TP2P8AOWQLVE","7","2","2","9","9","25176","2017-09-18 14:14:43","10638"
"A5BEH1IONAYMB","caus_thomas_all_dis_v1","3IHR8NYAM72RK4VYMWL9AGHHGMU4PJ","6","2","2","4","4","18467","2017-09-18 14:14:44","10639"
"A3E4DNVERAYBI4","caus_thomas_all_dis_v1","34T446B1C0FRRR4TYQC1EDSX0RZC0X","8","1","1","3","1","11759","2017-09-18 14:14:44","10640"
"A2ZLJ54OLKRIN3","caus_thomas_all_dis_v1","3GA6AFUKOOPEPRE6358LR2NKGVOH36","1","4","4","4","10","13446","2017-09-18 14:14:44","10641"
"A2NG2CCBMVEBIA","caus_thomas_all_dis_v1","3XXU1SWE8MW3YC7VECGA8I290OEA0T","8","4","4","1","8","8216","2017-09-18 14:14:45","10642"
"A16Q5SHETG2L0G","caus_thomas_all_dis_v1","3L4PIM1GQTHSUOPXOVD5V0L3C5HRYJ","4","3","3","2","6","7961","2017-09-18 14:14:46","10643"
"A20NITCOBY4775","caus_thomas_all_dis_v1","3D4CH1LGEAUM4X8B08RDXFE51NLG9N","8","1","1","7","8","13177","2017-09-18 14:14:46","10644"
"A11EOU75NFP39H","caus_thomas_all_dis_v1","3UXUOQ9OKEYHGN7FZB1JNXCW82KA7T","8","1","1","6","3","24086","2017-09-18 14:14:48","10645"
"A16Q5SHETG2L0G","caus_thomas_all_dis_v1","3L4PIM1GQTHSUOPXOVD5V0L3C5HRYJ","5","4","4","6","9","1618","2017-09-18 14:14:48","10646"
"A2K2A7R5OSS0QM","caus_thomas_all_dis_v1","351SEKWQS0IYZXHENRUAWGHSOUCMDI","1","1","1","9","8","44002","2017-09-18 14:14:51","10647"
"A2J9AHXZBB37XU","caus_thomas_all_dis_v1","3K3R2QNK8B459F96KDGU1UFWAV0U91","5","0","0","7","6","34545","2017-09-18 14:14:52","10648"
"A5BEH1IONAYMB","caus_thomas_all_dis_v1","3IHR8NYAM72RK4VYMWL9AGHHGMU4PJ","6","3","3","8","10","8897","2017-09-18 14:14:54","10649"
"A2K2A7R5OSS0QM","caus_thomas_all_dis_v1","351SEKWQS0IYZXHENRUAWGHSOUCMDI","1","2","2","7","4","3804","2017-09-18 14:14:56","10650"
"A3E4DNVERAYBI4","caus_thomas_all_dis_v1","34T446B1C0FRRR4TYQC1EDSX0RZC0X","8","2","2","4","6","10309","2017-09-18 14:14:56","10651"
"AE7CNI1N00155","caus_thomas_all_dis_v1","3JC6VJ2SABK2TJTWBIMMPDY0HWPA5E","8","3","3","1","2","15738","2017-09-18 14:14:58","10652"
"A5BEH1IONAYMB","caus_thomas_all_dis_v1","3IHR8NYAM72RK4VYMWL9AGHHGMU4PJ","5","4","4","3","3","4220","2017-09-18 14:14:59","10653"
"A3E4DNVERAYBI4","caus_thomas_all_dis_v1","34T446B1C0FRRR4TYQC1EDSX0RZC0X","8","3","3","7","8","6490","2017-09-18 14:15:03","10654"
"A20NITCOBY4775","caus_thomas_all_dis_v1","3D4CH1LGEAUM4X8B08RDXFE51NLG9N","8","2","2","4","7","16860","2017-09-18 14:15:04","10655"
"A10DGGOQ9N186P
","caus_thomas_all_dis_v1","337RC3OW0530NWZFE0TP2P8AOWQLVE","7","3","3","6","3","20798","2017-09-18 14:15:04","10656"
"A11EOU75NFP39H","caus_thomas_all_dis_v1","3UXUOQ9OKEYHGN7FZB1JNXCW82KA7T","8","2","2","3","4","16204","2017-09-18 14:15:05","10657"
"A2XKIP0PJ3FJ20","caus_thomas_all_dis_v1","3D8YOU6S9ELIRW78M6DIHKOUKUSU6Q","0","0","0","5","10","78219","2017-09-18 14:15:06","10658"
"A3DFL72CC0P7UE","caus_thomas_all_dis_v1","3BWI6RSP7GAK60ORFG35JG2NTHI7EL","8","1","1","8","10","35207","2017-09-18 14:15:08","10659"
"A24Z9RP5YZZ2TY","caus_thomas_all_dis_v1","30LSNF239UWP04T75NC184J7AU3I2P","8","0","0","2","10","28280","2017-09-18 14:15:10","10660"
"A3E4DNVERAYBI4","caus_thomas_all_dis_v1","34T446B1C0FRRR4TYQC1EDSX0RZC0X","8","4","4","2","3","6118","2017-09-18 14:15:10","10661"
"A2J9AHXZBB37XU","caus_thomas_all_dis_v1","3K3R2QNK8B459F96KDGU1UFWAV0U91","7","1","1","2","10","20631","2017-09-18 14:15:13","10662"
"A10DGGOQ9N186P
","caus_thomas_all_dis_v1","337RC3OW0530NWZFE0TP2P8AOWQLVE","7","4","4","4","7","10866","2017-09-18 14:15:16","10663"
"A1TXCO12MCTP8P
A1TXCO12MCTP8P","caus_thomas_all_dis_v1","3E4GGUZ1T8SG6ZJV5QXDLKYK2YSK22","5","0","0","7","4","78711","2017-09-18 14:15:17","10664"
"AYD2LKV6C5F2S","caus_thomas_all_dis_v1","3K2755HG5S4STNPX14QX1QXJRT0FD4","4","0","0","8","4","46352","2017-09-18 14:15:18","10665"
"A20NITCOBY4775","caus_thomas_all_dis_v1","3D4CH1LGEAUM4X8B08RDXFE51NLG9N","8","3","3","6","2","12894","2017-09-18 14:15:18","10666"
"A11EOU75NFP39H","caus_thomas_all_dis_v1","3UXUOQ9OKEYHGN7FZB1JNXCW82KA7T","8","3","3","1","10","17270","2017-09-18 14:15:23","10667"
"A24Z9RP5YZZ2TY","caus_thomas_all_dis_v1","30LSNF239UWP04T75NC184J7AU3I2P","8","1","1","4","7","12653","2017-09-18 14:15:24","10668"
"A1RPQXFV02P72A","caus_thomas_all_dis_v1","3C44YUNSI1Q4K0ERF7M2DKBNTZNPDH","6","0","0","6","7","43984","2017-09-18 14:15:25","10669"
"A20NITCOBY4775","caus_thomas_all_dis_v1","3D4CH1LGEAUM4X8B08RDXFE51NLG9N","8","4","4","5","3","6960","2017-09-18 14:15:26","10670"
"A2LAE5LO34AK
","caus_thomas_all_dis_v1","37QW5D2ZRGNPGXYSQGFGMX2X5SXS8U","8","0","0","5","7","20231","2017-09-18 14:15:26","10671"
"A2XKIP0PJ3FJ20","caus_thomas_all_dis_v1","3D8YOU6S9ELIRW78M6DIHKOUKUSU6Q","1","1","1","2","2","19600","2017-09-18 14:15:27","10672"
"A2J9AHXZBB37XU","caus_thomas_all_dis_v1","3K3R2QNK8B459F96KDGU1UFWAV0U91","5","2","2","9","8","14752","2017-09-18 14:15:28","10673"
"A14ZPUNO6NGWKQ","caus_thomas_all_dis_v1","3KAKFY4PGU3ELMPQ9NQ6REOZG83I30","0","0","0","7","9","73628","2017-09-18 14:15:29","10674"
"AE7CNI1N00155","caus_thomas_all_dis_v1","3JC6VJ2SABK2TJTWBIMMPDY0HWPA5E","6","4","4","3","7","25085","2017-09-18 14:15:30","10675"
"A3DFL72CC0P7UE","caus_thomas_all_dis_v1","3BWI6RSP7GAK60ORFG35JG2NTHI7EL","8","2","2","4","5","21485","2017-09-18 14:15:31","10676"
"A2K2A7R5OSS0QM","caus_thomas_all_dis_v1","351SEKWQS0IYZXHENRUAWGHSOUCMDI","1","3","3","2","1","37027","2017-09-18 14:15:34","10677"
"A2LAE5LO34AK
","caus_thomas_all_dis_v1","37QW5D2ZRGNPGXYSQGFGMX2X5SXS8U","8","1","1","3","9","7918","2017-09-18 14:15:35","10678"
"A24Z9RP5YZZ2TY","caus_thomas_all_dis_v1","30LSNF239UWP04T75NC184J7AU3I2P","8","2","2","3","1","12832","2017-09-18 14:15:37","10679"
"A11EOU75NFP39H","caus_thomas_all_dis_v1","3UXUOQ9OKEYHGN7FZB1JNXCW82KA7T","8","4","4","10","6","13173","2017-09-18 14:15:37","10680"
"A1RPQXFV02P72A","caus_thomas_all_dis_v1","3C44YUNSI1Q4K0ERF7M2DKBNTZNPDH","1","1","1","9","4","12894","2017-09-18 14:15:39","10681"
"A2LAE5LO34AK
","caus_thomas_all_dis_v1","37QW5D2ZRGNPGXYSQGFGMX2X5SXS8U","8","2","2","1","10","3558","2017-09-18 14:15:39","10682"
"A2J9AHXZBB37XU","caus_thomas_all_dis_v1","3K3R2QNK8B459F96KDGU1UFWAV0U91","3","3","3","6","9","10998","2017-09-18 14:15:40","10683"
"AYD2LKV6C5F2S","caus_thomas_all_dis_v1","3K2755HG5S4STNPX14QX1QXJRT0FD4","6","1","1","9","2","22100","2017-09-18 14:15:41","10684"
"AK3O7HRDMEI5J","caus_thomas_all_dis_v1","3VZLGYJEYLBCWALETGLGYPGTJG6ZXE","7","0","0","4","1","31277","2017-09-18 14:15:43","10685"
"A3AV8KOZW78IEW","caus_thomas_all_dis_v1","3AMW0RGHOD3D6C5441059PNH73PPNZ","1","0","0","10","4","39547","2017-09-18 14:15:44","10686"
"A2XKIP0PJ3FJ20","caus_thomas_all_dis_v1","3D8YOU6S9ELIRW78M6DIHKOUKUSU6Q","5","2","2","9","3","16332","2017-09-18 14:15:44","10687"
"A1TXCO12MCTP8P
A1TXCO12MCTP8P","caus_thomas_all_dis_v1","3E4GGUZ1T8SG6ZJV5QXDLKYK2YSK22","7","1","1","8","1","25904","2017-09-18 14:15:44","10688"
"A3DFL72CC0P7UE","caus_thomas_all_dis_v1","3BWI6RSP7GAK60ORFG35JG2NTHI7EL","8","3","3","5","4","13378","2017-09-18 14:15:45","10689"
"A2LAE5LO34AK
","caus_thomas_all_dis_v1","37QW5D2ZRGNPGXYSQGFGMX2X5SXS8U","8","3","3","6","5","4668","2017-09-18 14:15:45","10690"
"AYD2LKV6C5F2S","caus_thomas_all_dis_v1","3K2755HG5S4STNPX14QX1QXJRT0FD4","4","2","2","2","1","6065","2017-09-18 14:15:48","10691"
"A2LAE5LO34AK
","caus_thomas_all_dis_v1","37QW5D2ZRGNPGXYSQGFGMX2X5SXS8U","8","4","4","10","4","2423","2017-09-18 14:15:48","10692"
"A2J9AHXZBB37XU","caus_thomas_all_dis_v1","3K3R2QNK8B459F96KDGU1UFWAV0U91","0","4","4","10","4","9278","2017-09-18 14:15:50","10693"
"A2KDZ4HNHX85OR","caus_thomas_all_dis_v1","3EFE17QCRC6I98ZLTK9MZAVW8BNSH9","4","0","0","5","6","4704","2017-09-18 14:15:51","10694"
"A24Z9RP5YZZ2TY","caus_thomas_all_dis_v1","30LSNF239UWP04T75NC184J7AU3I2P","8","3","3","6","4","13028","2017-09-18 14:15:51","10695"
"A1YSYI926BBOHW","caus_thomas_all_dis_v1","3DQQ64TANGM3T6EIW2RS58080FTWPX","8","0","0","7","7","30189","2017-09-18 14:15:53","10696"
"A2XKIP0PJ3FJ20","caus_thomas_all_dis_v1","3D8YOU6S9ELIRW78M6DIHKOUKUSU6Q","8","3","3","10","1","9005","2017-09-18 14:15:54","10697"
"A2KDZ4HNHX85OR","caus_thomas_all_dis_v1","3EFE17QCRC6I98ZLTK9MZAVW8BNSH9","5","1","1","9","2","2191","2017-09-18 14:15:55","10698"
"AYD2LKV6C5F2S","caus_thomas_all_dis_v1","3K2755HG5S4STNPX14QX1QXJRT0FD4","5","3","3","6","7","6814","2017-09-18 14:15:56","10699"
"AK3O7HRDMEI5J","caus_thomas_all_dis_v1","3VZLGYJEYLBCWALETGLGYPGTJG6ZXE","7","1","1","7","5","12965","2017-09-18 14:15:57","10700"
"A24Z9RP5YZZ2TY","caus_thomas_all_dis_v1","30LSNF239UWP04T75NC184J7AU3I2P","8","4","4","10","8","5116","2017-09-18 14:15:58","10701"
"A2KDZ4HNHX85OR","caus_thomas_all_dis_v1","3EFE17QCRC6I98ZLTK9MZAVW8BNSH9","6","2","2","7","7","2442","2017-09-18 14:15:58","10702"
"A2K2A7R5OSS0QM","caus_thomas_all_dis_v1","351SEKWQS0IYZXHENRUAWGHSOUCMDI","1","4","4","3","7","24982","2017-09-18 14:16:00","10703"
"A14ZPUNO6NGWKQ","caus_thomas_all_dis_v1","3KAKFY4PGU3ELMPQ9NQ6REOZG83I30","2","1","1","1","3","30597","2017-09-18 14:16:00","10704"
"A2KDZ4HNHX85OR","caus_thomas_all_dis_v1","3EFE17QCRC6I98ZLTK9MZAVW8BNSH9","2","3","3","8","10","1599","2017-09-18 14:16:01","10705"
"AYD2LKV6C5F2S","caus_thomas_all_dis_v1","3K2755HG5S4STNPX14QX1QXJRT0FD4","5","4","4","4","6","4639","2017-09-18 14:16:02","10706"
"AK3O7HRDMEI5J","caus_thomas_all_dis_v1","3VZLGYJEYLBCWALETGLGYPGTJG6ZXE","7","2","2","5","2","4073","2017-09-18 14:16:02","10707"
"A2XKIP0PJ3FJ20","caus_thomas_all_dis_v1","3D8YOU6S9ELIRW78M6DIHKOUKUSU6Q","2","4","4","4","4","8220","2017-09-18 14:16:03","10708"
"A2KDZ4HNHX85OR","caus_thomas_all_dis_v1","3EFE17QCRC6I98ZLTK9MZAVW8BNSH9","4","4","4","4","9","1725","2017-09-18 14:16:03","10709"
"A3DFL72CC0P7UE","caus_thomas_all_dis_v1","3BWI6RSP7GAK60ORFG35JG2NTHI7EL","8","4","4","6","6","19066","2017-09-18 14:16:05","10710"
"AZOF6QSSWG98H","caus_thomas_all_dis_v1","3NS0A6KXC491AOQO46LCA3GYGQAZGM","8","0","0","10","7","40557","2017-09-18 14:16:08","10711"
"A1TXCO12MCTP8P
A1TXCO12MCTP8P","caus_thomas_all_dis_v1","3E4GGUZ1T8SG6ZJV5QXDLKYK2YSK22","6","2","2","9","6","24298","2017-09-18 14:16:10","10712"
"A2DDXYTEVDV5F5","caus_thomas_all_dis_v1","3UJ1CZ6IZHQ6TFFQSI8DADS632WS5S","8","0","0","10","8","46392","2017-09-18 14:16:10","10713"
"A3AV8KOZW78IEW","caus_thomas_all_dis_v1","3AMW0RGHOD3D6C5441059PNH73PPNZ","2","1","1","6","5","25862","2017-09-18 14:16:10","10714"
"AK3O7HRDMEI5J","caus_thomas_all_dis_v1","3VZLGYJEYLBCWALETGLGYPGTJG6ZXE","7","3","3","3","7","9756","2017-09-18 14:16:13","10715"
"A1RPQXFV02P72A","caus_thomas_all_dis_v1","3C44YUNSI1Q4K0ERF7M2DKBNTZNPDH","8","2","2","5","8","33426","2017-09-18 14:16:14","10716"
"A14ZPUNO6NGWKQ","caus_thomas_all_dis_v1","3KAKFY4PGU3ELMPQ9NQ6REOZG83I30","2","2","2","5","4","13028","2017-09-18 14:16:15","10717"
"A1YSYI926BBOHW","caus_thomas_all_dis_v1","3DQQ64TANGM3T6EIW2RS58080FTWPX","8","1","1","10","8","22459","2017-09-18 14:16:16","10718"
"AK3O7HRDMEI5J","caus_thomas_all_dis_v1","3VZLGYJEYLBCWALETGLGYPGTJG6ZXE","7","4","4","6","6","3990","2017-09-18 14:16:18","10719"
"A3AV8KOZW78IEW","caus_thomas_all_dis_v1","3AMW0RGHOD3D6C5441059PNH73PPNZ","4","2","2","7","3","9018","2017-09-18 14:16:21","10720"
"A1TXCO12MCTP8P
A1TXCO12MCTP8P","caus_thomas_all_dis_v1","3E4GGUZ1T8SG6ZJV5QXDLKYK2YSK22","3","3","3","5","8","13127","2017-09-18 14:16:24","10721"
"A1YSYI926BBOHW","caus_thomas_all_dis_v1","3DQQ64TANGM3T6EIW2RS58080FTWPX","8","2","2","9","9","10550","2017-09-18 14:16:28","10722"
"AGVR7IGGPLN8J","caus_thomas_all_dis_v1","3U5JL4WY5KAWTDXP8NVQ4T3KIL44X8","0","0","0","9","3","22864","2017-09-18 14:16:28","10723"
"A3AV8KOZW78IEW","caus_thomas_all_dis_v1","3AMW0RGHOD3D6C5441059PNH73PPNZ","4","3","3","1","10","6373","2017-09-18 14:16:28","10724"
"A2Q3FS9G8ITCN7","caus_thomas_all_dis_v1","3LO69W1SU3EH5Z9KP5U32O501H2GLK","4","0","0","1","8","50089","2017-09-18 14:16:28","10725"
"A1RPQXFV02P72A","caus_thomas_all_dis_v1","3C44YUNSI1Q4K0ERF7M2DKBNTZNPDH","3","3","3","3","1","14789","2017-09-18 14:16:29","10726"
"A14ZPUNO6NGWKQ","caus_thomas_all_dis_v1","3KAKFY4PGU3ELMPQ9NQ6REOZG83I30","2","3","3","9","10","15516","2017-09-18 14:16:31","10727"
"A3AV8KOZW78IEW","caus_thomas_all_dis_v1","3AMW0RGHOD3D6C5441059PNH73PPNZ","4","4","4","3","1","4660","2017-09-18 14:16:34","10728"
"A2DDXYTEVDV5F5","caus_thomas_all_dis_v1","3UJ1CZ6IZHQ6TFFQSI8DADS632WS5S","0","1","1","1","5","22714","2017-09-18 14:16:34","10729"
"A1TXCO12MCTP8P
A1TXCO12MCTP8P","caus_thomas_all_dis_v1","3E4GGUZ1T8SG6ZJV5QXDLKYK2YSK22","8","4","4","10","9","9899","2017-09-18 14:16:35","10730"
"AZOF6QSSWG98H","caus_thomas_all_dis_v1","3NS0A6KXC491AOQO46LCA3GYGQAZGM","8","1","1","7","1","28298","2017-09-18 14:16:37","10731"
"A1RPQXFV02P72A","caus_thomas_all_dis_v1","3C44YUNSI1Q4K0ERF7M2DKBNTZNPDH","1","4","4","8","6","7800","2017-09-18 14:16:38","10732"
"A1YSYI926BBOHW","caus_thomas_all_dis_v1","3DQQ64TANGM3T6EIW2RS58080FTWPX","8","3","3","2","6","11126","2017-09-18 14:16:40","10733"
"A2Q3FS9G8ITCN7","caus_thomas_all_dis_v1","3LO69W1SU3EH5Z9KP5U32O501H2GLK","4","1","1","5","2","15421","2017-09-18 14:16:45","10734"
"A14ZPUNO6NGWKQ","caus_thomas_all_dis_v1","3KAKFY4PGU3ELMPQ9NQ6REOZG83I30","2","4","4","2","7","12924","2017-09-18 14:16:45","10735"
"A3A8P4UR9A0DWQ","caus_thomas_all_dis_v1","3LPW2N6LKT3M8S7UHN3DPEAUOZH5UL","8","0","0","8","1","39105","2017-09-18 14:16:45","10736"
"A2DDXYTEVDV5F5","caus_thomas_all_dis_v1","3UJ1CZ6IZHQ6TFFQSI8DADS632WS5S","0","2","2","3","4","10825","2017-09-18 14:16:46","10737"
"A1YSYI926BBOHW","caus_thomas_all_dis_v1","3DQQ64TANGM3T6EIW2RS58080FTWPX","8","4","4","6","5","9486","2017-09-18 14:16:50","10738"
"AZOF6QSSWG98H","caus_thomas_all_dis_v1","3NS0A6KXC491AOQO46LCA3GYGQAZGM","8","2","2","4","6","12199","2017-09-18 14:16:50","10739"
"AGVR7IGGPLN8J","caus_thomas_all_dis_v1","3U5JL4WY5KAWTDXP8NVQ4T3KIL44X8","7","1","1","8","7","23538","2017-09-18 14:16:51","10740"
"A1KXYURHCYHKOL","caus_thomas_all_dis_v1","3QFUFYSY9YGFTR648TP4YM3DEG7F4R","8","0","0","2","7","52155","2017-09-18 14:16:52","10741"
"A3A8P4UR9A0DWQ","caus_thomas_all_dis_v1","3LPW2N6LKT3M8S7UHN3DPEAUOZH5UL","0","1","1","4","9","14716","2017-09-18 14:17:01","10742"
"A3I3VC7VCQHOT8","caus_thomas_all_dis_v1","3RJSC4XJ10V6S6VEJGPT07MN8AE05E","4","0","0","8","6","47449","2017-09-18 14:17:01","10743"
"A3RX72PACI0RG4","caus_thomas_all_dis_v1","3BWI6RSP7GAK60ORFG35JG2NTHIE7S","7","0","0","7","6","24800","2017-09-18 14:17:01","10744"
"A2DDXYTEVDV5F5","caus_thomas_all_dis_v1","3UJ1CZ6IZHQ6TFFQSI8DADS632WS5S","6","3","3","7","2","14799","2017-09-18 14:17:02","10745"
"AZOF6QSSWG98H","caus_thomas_all_dis_v1","3NS0A6KXC491AOQO46LCA3GYGQAZGM","8","3","3","9","4","13419","2017-09-18 14:17:05","10746"
"A3V8K9BG9DSC11","caus_thomas_all_dis_v1","3UWN2HHPUY6AJ4LWWI4Z4USSUNWNSD","4","0","0","4","9","49887","2017-09-18 14:17:06","10747"
"A1KXYURHCYHKOL","caus_thomas_all_dis_v1","3QFUFYSY9YGFTR648TP4YM3DEG7F4R","8","1","1","6","5","15392","2017-09-18 14:17:09","10748"
"AGVR7IGGPLN8J","caus_thomas_all_dis_v1","3U5JL4WY5KAWTDXP8NVQ4T3KIL44X8","6","2","2","6","8","18750","2017-09-18 14:17:12","10749"
"A1SG071MSEZYM4
A1SG071MSEZYM4
A1SG071MSEZYM4
A1SGA1SG071MSEZYM4
A1SG071MSEZYM4","caus_thomas_all_dis_v1","3YWRV122CS05VAQWFLAG1YKLQPI8UQ","4","0","0","6","1","182902","2017-09-18 14:17:14","10750"
"A2DDXYTEVDV5F5","caus_thomas_all_dis_v1","3UJ1CZ6IZHQ6TFFQSI8DADS632WS5S","0","4","4","4","9","11500","2017-09-18 14:17:14","10751"
"AZOF6QSSWG98H","caus_thomas_all_dis_v1","3NS0A6KXC491AOQO46LCA3GYGQAZGM","8","4","4","2","10","10152","2017-09-18 14:17:16","10752"
"A3FHFGC3V9B3OJ","caus_thomas_all_dis_v1","3L0KT67Y8EH4V3PA3KDALAQZY70SY8","7","0","0","6","1","38250","2017-09-18 14:17:17","10753"
"A3A8P4UR9A0DWQ","caus_thomas_all_dis_v1","3LPW2N6LKT3M8S7UHN3DPEAUOZH5UL","0","2","2","10","8","16346","2017-09-18 14:17:18","10754"
"AGVR7IGGPLN8J","caus_thomas_all_dis_v1","3U5JL4WY5KAWTDXP8NVQ4T3KIL44X8","6","3","3","3","6","8456","2017-09-18 14:17:21","10755"
"A3RX72PACI0RG4","caus_thomas_all_dis_v1","3BWI6RSP7GAK60ORFG35JG2NTHIE7S","0","1","1","3","7","19831","2017-09-18 14:17:22","10756"
"A3I3VC7VCQHOT8","caus_thomas_all_dis_v1","3RJSC4XJ10V6S6VEJGPT07MN8AE05E","4","1","1","4","2","21113","2017-09-18 14:17:23","10757"
"A3V8K9BG9DSC11","caus_thomas_all_dis_v1","3UWN2HHPUY6AJ4LWWI4Z4USSUNWNSD","8","1","1","10","6","17101","2017-09-18 14:17:24","10758"
"A2U7BMG19Q83GE","caus_thomas_all_dis_v1","3JNQLM5FT4NRQ51DQQ9E0KBZRYY2LO","4","0","0","10","5","3625","2017-09-18 14:17:26","10759"
"A1KXYURHCYHKOL","caus_thomas_all_dis_v1","3QFUFYSY9YGFTR648TP4YM3DEG7F4R","8","2","2","9","8","17309","2017-09-18 14:17:27","10760"
"AGVR7IGGPLN8J","caus_thomas_all_dis_v1","3U5JL4WY5KAWTDXP8NVQ4T3KIL44X8","8","4","4","10","5","6368","2017-09-18 14:17:28","10761"
"A3FHFGC3V9B3OJ","caus_thomas_all_dis_v1","3L0KT67Y8EH4V3PA3KDALAQZY70SY8","7","1","1","10","5","10762","2017-09-18 14:17:29","10762"
"A3A8P4UR9A0DWQ","caus_thomas_all_dis_v1","3LPW2N6LKT3M8S7UHN3DPEAUOZH5UL","3","3","3","3","2","10264","2017-09-18 14:17:29","10763"
"A2U7BMG19Q83GE","caus_thomas_all_dis_v1","3JNQLM5FT4NRQ51DQQ9E0KBZRYY2LO","3","1","1","3","9","3561","2017-09-18 14:17:30","10764"
"A2Q3FS9G8ITCN7","caus_thomas_all_dis_v1","3LO69W1SU3EH5Z9KP5U32O501H2GLK","4","2","2","6","6","44506","2017-09-18 14:17:30","10765"
"A17V85U8PXS4LJ","caus_thomas_all_dis_v1","3BF51CHDTVBI8ZF9KIQ2P4PDDJ50HV","7","0","0","8","6","26763","2017-09-18 14:17:32","10766"
"A3RX72PACI0RG4","caus_thomas_all_dis_v1","3BWI6RSP7GAK60ORFG35JG2NTHIE7S","0","2","2","4","9","11566","2017-09-18 14:17:35","10767"
"A3V8K9BG9DSC11","caus_thomas_all_dis_v1","3UWN2HHPUY6AJ4LWWI4Z4USSUNWNSD","6","2","2","6","1","11095","2017-09-18 14:17:36","10768"
"A2U7BMG19Q83GE","caus_thomas_all_dis_v1","3JNQLM5FT4NRQ51DQQ9E0KBZRYY2LO","3","2","2","7","1","5680","2017-09-18 14:17:37","10769"
"A1LHBNE9I1QFGD","caus_thomas_all_dis_v1","30LSNF239UWP04T75NC184J7AU42IA","8","0","0","10","8","65726","2017-09-18 14:17:39","10770"
"A3I3VC7VCQHOT8","caus_thomas_all_dis_v1","3RJSC4XJ10V6S6VEJGPT07MN8AE05E","4","2","2","10","10","14875","2017-09-18 14:17:39","10771"
"A3A8P4UR9A0DWQ","caus_thomas_all_dis_v1","3LPW2N6LKT3M8S7UHN3DPEAUOZH5UL","8","4","4","9","7","9097","2017-09-18 14:17:40","10772"
"A1KXYURHCYHKOL","caus_thomas_all_dis_v1","3QFUFYSY9YGFTR648TP4YM3DEG7F4R","8","3","3","1","4","11562","2017-09-18 14:17:40","10773"
"A3I2OO72NTHLAL","caus_thomas_all_dis_v1","3X4JMASXCMA8HMCNKQG63TMFI600BF","8","0","0","10","8","37288","2017-09-18 14:17:40","10774"
"A3FHFGC3V9B3OJ","caus_thomas_all_dis_v1","3L0KT67Y8EH4V3PA3KDALAQZY70SY8","7","2","2","3","4","10443","2017-09-18 14:17:40","10775"
"A2Q3FS9G8ITCN7","caus_thomas_all_dis_v1","3LO69W1SU3EH5Z9KP5U32O501H2GLK","4","3","3","8","7","8870","2017-09-18 14:17:40","10776"
"A2U7BMG19Q83GE","caus_thomas_all_dis_v1","3JNQLM5FT4NRQ51DQQ9E0KBZRYY2LO","4","3","3","1","4","3654","2017-09-18 14:17:42","10777"
"A2D3TXA2QAVPXW","caus_thomas_all_dis_v1","3WLEIWSYHOIP49INZ5UG8SISAHP2HH","5","0","0","4","8","29931","2017-09-18 14:17:44","10778"
"A2U7BMG19Q83GE","caus_thomas_all_dis_v1","3JNQLM5FT4NRQ51DQQ9E0KBZRYY2LO","4","4","4","2","10","1630","2017-09-18 14:17:44","10779"
"A3RX72PACI0RG4","caus_thomas_all_dis_v1","3BWI6RSP7GAK60ORFG35JG2NTHIE7S","0","3","3","1","8","9147","2017-09-18 14:17:45","10780"
"A17V85U8PXS4LJ","caus_thomas_all_dis_v1","3BF51CHDTVBI8ZF9KIQ2P4PDDJ50HV","7","1","1","4","3","12338","2017-09-18 14:17:45","10781"
"A3V8K9BG9DSC11","caus_thomas_all_dis_v1","3UWN2HHPUY6AJ4LWWI4Z4USSUNWNSD","6","3","3","8","5","11126","2017-09-18 14:17:48","10782"
"A3I3VC7VCQHOT8","caus_thomas_all_dis_v1","3RJSC4XJ10V6S6VEJGPT07MN8AE05E","4","3","3","6","8","8907","2017-09-18 14:17:49","10783"
"A2Q3FS9G8ITCN7","caus_thomas_all_dis_v1","3LO69W1SU3EH5Z9KP5U32O501H2GLK","4","4","4","10","9","8299","2017-09-18 14:17:50","10784"
"A1KXYURHCYHKOL","caus_thomas_all_dis_v1","3QFUFYSY9YGFTR648TP4YM3DEG7F4R","8","4","4","5","9","9492","2017-09-18 14:17:50","10785"
"A3FHFGC3V9B3OJ","caus_thomas_all_dis_v1","3L0KT67Y8EH4V3PA3KDALAQZY70SY8","7","3","3","9","8","9400","2017-09-18 14:17:51","10786"
"A17V85U8PXS4LJ","caus_thomas_all_dis_v1","3BF51CHDTVBI8ZF9KIQ2P4PDDJ50HV","7","2","2","10","2","7228","2017-09-18 14:17:54","10787"
"A3RX72PACI0RG4","caus_thomas_all_dis_v1","3BWI6RSP7GAK60ORFG35JG2NTHIE7S","0","4","4","2","10","8110","2017-09-18 14:17:54","10788"
"A3FHFGC3V9B3OJ","caus_thomas_all_dis_v1","3L0KT67Y8EH4V3PA3KDALAQZY70SY8","7","4","4","5","10","5673","2017-09-18 14:17:57","10789"
"A3I3VC7VCQHOT8","caus_thomas_all_dis_v1","3RJSC4XJ10V6S6VEJGPT07MN8AE05E","4","4","4","3","3","7357","2017-09-18 14:17:57","10790"
"A3V8K9BG9DSC11","caus_thomas_all_dis_v1","3UWN2HHPUY6AJ4LWWI4Z4USSUNWNSD","7","4","4","9","3","10018","2017-09-18 14:17:58","10791"
"AJWES6SFIP3AT","caus_thomas_all_dis_v1","3WT783CTPBISBE73W69QYUOGRVWBCI","8","0","0","1","5","79286","2017-09-18 14:18:00","10792"
"A2D3TXA2QAVPXW","caus_thomas_all_dis_v1","3WLEIWSYHOIP49INZ5UG8SISAHP2HH","1","1","1","6","7","17045","2017-09-18 14:18:02","10793"
"A3I2OO72NTHLAL","caus_thomas_all_dis_v1","3X4JMASXCMA8HMCNKQG63TMFI600BF","8","1","1","6","5","21330","2017-09-18 14:18:02","10794"
"A1LHBNE9I1QFGD","caus_thomas_all_dis_v1","30LSNF239UWP04T75NC184J7AU42IA","8","1","1","6","1","23453","2017-09-18 14:18:03","10795"
"A17V85U8PXS4LJ","caus_thomas_all_dis_v1","3BF51CHDTVBI8ZF9KIQ2P4PDDJ50HV","-1","3","3","7","8","9085","2017-09-18 14:18:04","10796"
"AUOYNTK0GOFOM","caus_thomas_all_dis_v1","33L7PJKHCGZQVXB7FGK6W2YJ7BBT8K","8","0","0","6","9","46008","2017-09-18 14:18:10","10797"
"A17V85U8PXS4LJ","caus_thomas_all_dis_v1","3BF51CHDTVBI8ZF9KIQ2P4PDDJ50HV","7","4","4","2","4","6956","2017-09-18 14:18:12","10798"
"A3I2OO72NTHLAL","caus_thomas_all_dis_v1","3X4JMASXCMA8HMCNKQG63TMFI600BF","8","2","2","1","9","9060","2017-09-18 14:18:12","10799"
"A2D3TXA2QAVPXW","caus_thomas_all_dis_v1","3WLEIWSYHOIP49INZ5UG8SISAHP2HH","1","2","2","7","10","15946","2017-09-18 14:18:19","10800"
"A2SBN6V55I5K4I","caus_thomas_all_dis_v1","3R08VXYT7CWEN0AI0GXB5M9N0LO7W2","7","0","0","3","1","31840","2017-09-18 14:18:20","10801"
"A1LHBNE9I1QFGD","caus_thomas_all_dis_v1","30LSNF239UWP04T75NC184J7AU42IA","8","2","2","5","6","18964","2017-09-18 14:18:23","10802"
"AJWES6SFIP3AT","caus_thomas_all_dis_v1","3WT783CTPBISBE73W69QYUOGRVWBCI","4","1","1","5","6","24899","2017-09-18 14:18:26","10803"
"A3I2OO72NTHLAL","caus_thomas_all_dis_v1","3X4JMASXCMA8HMCNKQG63TMFI600BF","8","3","3","5","2","12739","2017-09-18 14:18:26","10804"
"AUOYNTK0GOFOM","caus_thomas_all_dis_v1","33L7PJKHCGZQVXB7FGK6W2YJ7BBT8K","8","1","1","2","4","16613","2017-09-18 14:18:28","10805"
"A1AO1LLP3INAZF","caus_thomas_all_dis_v1","3HYA4D452RK5QDRH4F6G576FU2B2FI","6","0","0","8","6","27469","2017-09-18 14:18:28","10806"
"A1SG071MSEZYM4
A1SG071MSEZYM4
A1SG071MSEZYM4
A1SGA1SG071MSEZYM4
A1SG071MSEZYM4","caus_thomas_all_dis_v1","3YWRV122CS05VAQWFLAG1YKLQPI8UQ","4","1","1","3","8","74986","2017-09-18 14:18:30","10807"
"A2D3TXA2QAVPXW","caus_thomas_all_dis_v1","3WLEIWSYHOIP49INZ5UG8SISAHP2HH","1","3","3","10","5","12043","2017-09-18 14:18:32","10808"
"A1LHBNE9I1QFGD","caus_thomas_all_dis_v1","30LSNF239UWP04T75NC184J7AU42IA","8","3","3","7","5","12261","2017-09-18 14:18:36","10809"
"AJWES6SFIP3AT","caus_thomas_all_dis_v1","3WT783CTPBISBE73W69QYUOGRVWBCI","6","2","2","7","8","9577","2017-09-18 14:18:37","10810"
"AUOYNTK0GOFOM","caus_thomas_all_dis_v1","33L7PJKHCGZQVXB7FGK6W2YJ7BBT8K","8","2","2","7","3","7814","2017-09-18 14:18:37","10811"
"A38KA8KXRLEM7M","caus_thomas_all_dis_v1","31HQ4X3T3SBKV4IBK5OKR2O3PSWLS9","7","0","0","3","9","62418","2017-09-18 14:18:39","10812"
"AKG7VBOY97HKA","caus_thomas_all_dis_v1","31Z0PCVWUKGMVJ6O5BS0I22OWR67TC","8","0","0","3","8","42018","2017-09-18 14:18:40","10813"
"A5OJ7FHDAEHR9","caus_thomas_all_dis_v1","3OUYGIZWR7ZALGDX3VY7YDR4ZAF0P0","4","0","0","6","10","43200","2017-09-18 14:18:41","10814"
"A1AO1LLP3INAZF","caus_thomas_all_dis_v1","3HYA4D452RK5QDRH4F6G576FU2B2FI","1","1","1","3","5","13679","2017-09-18 14:18:43","10815"
"A2D3TXA2QAVPXW","caus_thomas_all_dis_v1","3WLEIWSYHOIP49INZ5UG8SISAHP2HH","1","4","4","5","9","9881","2017-09-18 14:18:43","10816"
"A3I2OO72NTHLAL","caus_thomas_all_dis_v1","3X4JMASXCMA8HMCNKQG63TMFI600BF","8","4","4","9","4","19020","2017-09-18 14:18:46","10817"
"AJWES6SFIP3AT","caus_thomas_all_dis_v1","3WT783CTPBISBE73W69QYUOGRVWBCI","1","3","3","10","1","9862","2017-09-18 14:18:47","10818"
"A2SBN6V55I5K4I","caus_thomas_all_dis_v1","3R08VXYT7CWEN0AI0GXB5M9N0LO7W2","7","1","1","8","8","27075","2017-09-18 14:18:48","10819"
"AUOYNTK0GOFOM","caus_thomas_all_dis_v1","33L7PJKHCGZQVXB7FGK6W2YJ7BBT8K","8","3","3","8","1","10740","2017-09-18 14:18:49","10820"
"A3TQD8CNO16IZK","caus_thomas_all_dis_v1","3P59JYT76LLF9I9IZZB5MBLGLBJ2TQ","8","0","0","8","5","19829","2017-09-18 14:18:49","10821"
"A1LHBNE9I1QFGD","caus_thomas_all_dis_v1","30LSNF239UWP04T75NC184J7AU42IA","8","4","4","4","4","14780","2017-09-18 14:18:52","10822"
"A5OJ7FHDAEHR9","caus_thomas_all_dis_v1","3OUYGIZWR7ZALGDX3VY7YDR4ZAF0P0","4","1","1","5","4","11809","2017-09-18 14:18:54","10823"
"AJWES6SFIP3AT","caus_thomas_all_dis_v1","3WT783CTPBISBE73W69QYUOGRVWBCI","6","4","4","2","7","9418","2017-09-18 14:18:58","10824"
"A5OJ7FHDAEHR9","caus_thomas_all_dis_v1","3OUYGIZWR7ZALGDX3VY7YDR4ZAF0P0","4","2","2","4","1","6534","2017-09-18 14:19:01","10825"
"A38KA8KXRLEM7M","caus_thomas_all_dis_v1","31HQ4X3T3SBKV4IBK5OKR2O3PSWLS9","7","1","1","2","8","22391","2017-09-18 14:19:02","10826"
"A2SBN6V55I5K4I","caus_thomas_all_dis_v1","3R08VXYT7CWEN0AI0GXB5M9N0LO7W2","7","2","2","4","5","13341","2017-09-18 14:19:03","10827"
"AUOYNTK0GOFOM","caus_thomas_all_dis_v1","33L7PJKHCGZQVXB7FGK6W2YJ7BBT8K","8","4","4","4","5","15306","2017-09-18 14:19:05","10828"
"A3TQD8CNO16IZK","caus_thomas_all_dis_v1","3P59JYT76LLF9I9IZZB5MBLGLBJ2TQ","8","1","1","5","9","14797","2017-09-18 14:19:05","10829"
"A1AO1LLP3INAZF","caus_thomas_all_dis_v1","3HYA4D452RK5QDRH4F6G576FU2B2FI","8","2","2","9","1","21329","2017-09-18 14:19:05","10830"
"A5OJ7FHDAEHR9","caus_thomas_all_dis_v1","3OUYGIZWR7ZALGDX3VY7YDR4ZAF0P0","4","3","3","7","5","6687","2017-09-18 14:19:09","10831"
"A1CJM3ULFBWN1E","caus_thomas_all_dis_v1","32N49TQG3GJJRD8BH94ZTBSZUKRVA6","8","0","0","1","5","34789","2017-09-18 14:19:10","10832"
"A3ITZNJQUTIZ4C","caus_thomas_all_dis_v1","3137ONMDKG63ZTZS8J7ZPTFGSK1EGV","7","0","0","9","5","99000","2017-09-18 14:19:11","10833"
"A1AO1LLP3INAZF","caus_thomas_all_dis_v1","3HYA4D452RK5QDRH4F6G576FU2B2FI","3","3","3","5","8","4711","2017-09-18 14:19:11","10834"
"A2SBN6V55I5K4I","caus_thomas_all_dis_v1","3R08VXYT7CWEN0AI0GXB5M9N0LO7W2","7","3","3","7","3","7344","2017-09-18 14:19:11","10835"
"AKG7VBOY97HKA","caus_thomas_all_dis_v1","31Z0PCVWUKGMVJ6O5BS0I22OWR67TC","7","1","1","1","1","32712","2017-09-18 14:19:14","10836"
"A3TQD8CNO16IZK","caus_thomas_all_dis_v1","3P59JYT76LLF9I9IZZB5MBLGLBJ2TQ","8","2","2","10","4","7957","2017-09-18 14:19:14","10837"
"A5OJ7FHDAEHR9","caus_thomas_all_dis_v1","3OUYGIZWR7ZALGDX3VY7YDR4ZAF0P0","4","4","4","2","8","4300","2017-09-18 14:19:14","10838"
"ABKPEX0E9W2HW","caus_thomas_all_dis_v1","3NKQQ8O39Y6HC5MNWTLWNQYM1GFUDI","7","0","0","5","3","18751","2017-09-18 14:19:15","10839"
"A1P0XSCJ9XAV74","caus_thomas_all_dis_v1","38F71OA9GTXVXHVAEXP0KGKD07SMFT","1","0","0","2","4","35977","2017-09-18 14:19:16","10840"
"A1AO1LLP3INAZF","caus_thomas_all_dis_v1","3HYA4D452RK5QDRH4F6G576FU2B2FI","5","4","4","7","7","5131","2017-09-18 14:19:17","10841"
"A2SBN6V55I5K4I","caus_thomas_all_dis_v1","3R08VXYT7CWEN0AI0GXB5M9N0LO7W2","7","4","4","9","7","6301","2017-09-18 14:19:18","10842"
"A3TQD8CNO16IZK","caus_thomas_all_dis_v1","3P59JYT76LLF9I9IZZB5MBLGLBJ2TQ","8","3","3","1","2","8721","2017-09-18 14:19:24","10843"
"A1CJM3ULFBWN1E","caus_thomas_all_dis_v1","32N49TQG3GJJRD8BH94ZTBSZUKRVA6","7","1","1","5","10","14422","2017-09-18 14:19:25","10844"
"A38KA8KXRLEM7M","caus_thomas_all_dis_v1","31HQ4X3T3SBKV4IBK5OKR2O3PSWLS9","1","2","2","8","1","23744","2017-09-18 14:19:27","10845"
"ABKPEX0E9W2HW","caus_thomas_all_dis_v1","3NKQQ8O39Y6HC5MNWTLWNQYM1GFUDI","7","1","1","8","5","15291","2017-09-18 14:19:31","10846"
"A3TQD8CNO16IZK","caus_thomas_all_dis_v1","3P59JYT76LLF9I9IZZB5MBLGLBJ2TQ","8","4","4","2","7","6778","2017-09-18 14:19:32","10847"
"A1SG071MSEZYM4
A1SG071MSEZYM4
A1SG071MSEZYM4
A1SGA1SG071MSEZYM4
A1SG071MSEZYM4","caus_thomas_all_dis_v1","3YWRV122CS05VAQWFLAG1YKLQPI8UQ","4","2","2","5","9","60965","2017-09-18 14:19:32","10848"
"A1P0XSCJ9XAV74","caus_thomas_all_dis_v1","38F71OA9GTXVXHVAEXP0KGKD07SMFT","2","1","1","6","3","17103","2017-09-18 14:19:34","10849"
"A1CJM3ULFBWN1E","caus_thomas_all_dis_v1","32N49TQG3GJJRD8BH94ZTBSZUKRVA6","7","2","2","8","8","8462","2017-09-18 14:19:35","10850"
"A38KA8KXRLEM7M","caus_thomas_all_dis_v1","31HQ4X3T3SBKV4IBK5OKR2O3PSWLS9","2","3","3","5","2","8258","2017-09-18 14:19:36","10851"
"AKG7VBOY97HKA","caus_thomas_all_dis_v1","31Z0PCVWUKGMVJ6O5BS0I22OWR67TC","8","2","2","2","10","25568","2017-09-18 14:19:41","10852"
"A1CJM3ULFBWN1E","caus_thomas_all_dis_v1","32N49TQG3GJJRD8BH94ZTBSZUKRVA6","6","3","3","7","6","4995","2017-09-18 14:19:41","10853"
"ABKPEX0E9W2HW","caus_thomas_all_dis_v1","3NKQQ8O39Y6HC5MNWTLWNQYM1GFUDI","8","2","2","10","8","8966","2017-09-18 14:19:41","10854"
"A1PJLZSOUQ4MIL","caus_thomas_all_dis_v1","3M0NZ3JDP1Z3UR14NA2L66P9QHW5ZA","1","0","0","9","5","233798","2017-09-18 14:19:41","10855"
"A37UF08Y9XG9HT
A37UF08Y9XG9HT
A37UF08Y9XG9HT
A37UF08Y9XG9HT
A37UF08Y9XG9HT
A37UF08Y9XG9HT","caus_thomas_all_dis_v1","3IAS3U3I0FHFDWF1ZDKKMHFUF4K2B1","4","0","0","6","3","62822","2017-09-18 14:19:45","10856"
"A1FXGNL1XM81ON","caus_thomas_all_dis_v1","3A1COHJ8NJW0QOKCFM3HIJVVWHH8HQ","6","0","0","4","2","23154","2017-09-18 14:19:46","10857"
"A38KA8KXRLEM7M","caus_thomas_all_dis_v1","31HQ4X3T3SBKV4IBK5OKR2O3PSWLS9","0","4","4","10","5","8823","2017-09-18 14:19:46","10858"
"A1CJM3ULFBWN1E","caus_thomas_all_dis_v1","32N49TQG3GJJRD8BH94ZTBSZUKRVA6","7","4","4","9","7","6676","2017-09-18 14:19:48","10859"
"A1PJLZSOUQ4MIL","caus_thomas_all_dis_v1","3M0NZ3JDP1Z3UR14NA2L66P9QHW5ZA","0","1","1","10","6","6252","2017-09-18 14:19:49","10860"
"A1P0XSCJ9XAV74","caus_thomas_all_dis_v1","38F71OA9GTXVXHVAEXP0KGKD07SMFT","2","2","2","3","10","17781","2017-09-18 14:19:53","10861"
"A3ITZNJQUTIZ4C","caus_thomas_all_dis_v1","3137ONMDKG63ZTZS8J7ZPTFGSK1EGV","7","1","1","2","3","43401","2017-09-18 14:19:55","10862"
"ABKPEX0E9W2HW","caus_thomas_all_dis_v1","3NKQQ8O39Y6HC5MNWTLWNQYM1GFUDI","6","3","3","4","7","13501","2017-09-18 14:19:56","10863"
"A1PJLZSOUQ4MIL","caus_thomas_all_dis_v1","3M0NZ3JDP1Z3UR14NA2L66P9QHW5ZA","1","2","2","7","4","6655","2017-09-18 14:19:56","10864"
"A2KDVHF0E0EINH","caus_thomas_all_dis_v1","3XUHV3NRVKZH361AHOWE6ZL4URG5HL","8","0","0","5","9","75284","2017-09-18 14:19:57","10865"
"A1FXGNL1XM81ON","caus_thomas_all_dis_v1","3A1COHJ8NJW0QOKCFM3HIJVVWHH8HQ","6","1","1","7","5","11301","2017-09-18 14:19:58","10866"
"A1SG071MSEZYM4
A1SG071MSEZYM4
A1SG071MSEZYM4
A1SGA1SG071MSEZYM4
A1SG071MSEZYM4","caus_thomas_all_dis_v1","3YWRV122CS05VAQWFLAG1YKLQPI8UQ","4","3","3","4","2","27200","2017-09-18 14:20:00","10867"
"A37UF08Y9XG9HT
A37UF08Y9XG9HT
A37UF08Y9XG9HT
A37UF08Y9XG9HT
A37UF08Y9XG9HT
A37UF08Y9XG9HT","caus_thomas_all_dis_v1","3IAS3U3I0FHFDWF1ZDKKMHFUF4K2B1","4","1","1","3","8","15038","2017-09-18 14:20:01","10868"
"AKG7VBOY97HKA","caus_thomas_all_dis_v1","31Z0PCVWUKGMVJ6O5BS0I22OWR67TC","8","3","3","9","5","21758","2017-09-18 14:20:03","10869"
"A8MANRICXMMV3","caus_thomas_all_dis_v1","3MX2NQ3YC9VEPW1PMSE09L9YIHZ5XE","4","0","0","6","2","35024","2017-09-18 14:20:06","10870"
"A1FXGNL1XM81ON","caus_thomas_all_dis_v1","3A1COHJ8NJW0QOKCFM3HIJVVWHH8HQ","2","2","2","6","7","7112","2017-09-18 14:20:06","10871"
"A1P0XSCJ9XAV74","caus_thomas_all_dis_v1","38F71OA9GTXVXHVAEXP0KGKD07SMFT","1","3","3","8","8","13442","2017-09-18 14:20:07","10872"
"ABKPEX0E9W2HW","caus_thomas_all_dis_v1","3NKQQ8O39Y6HC5MNWTLWNQYM1GFUDI","6","4","4","3","10","10988","2017-09-18 14:20:08","10873"
"AE646CIHBMUMX","caus_thomas_all_dis_v1","3KGTPGBS6XMU9VO7Z41FR77I4PR2UI","8","0","0","9","8","49699","2017-09-18 14:20:10","10874"
"A1PJLZSOUQ4MIL","caus_thomas_all_dis_v1","3M0NZ3JDP1Z3UR14NA2L66P9QHW5ZA","0","3","3","6","3","15254","2017-09-18 14:20:13","10875"
"A11QDNT3W7DT7K","caus_thomas_all_dis_v1","33FOTY3KEMMRYGPBU9G1SIB75J61CQ","8","0","0","1","6","40148","2017-09-18 14:20:14","10876"
"A1FXGNL1XM81ON","caus_thomas_all_dis_v1","3A1COHJ8NJW0QOKCFM3HIJVVWHH8HQ","8","3","3","9","3","7620","2017-09-18 14:20:15","10877"
" A1QR6I7UPY8XQJ
","caus_thomas_all_dis_v1","3IAS3U3I0FHFDWF1ZDKKMHFUF4KB2A","6","0","0","6","4","15449","2017-09-18 14:20:16","10878"
"A8MANRICXMMV3","caus_thomas_all_dis_v1","3MX2NQ3YC9VEPW1PMSE09L9YIHZ5XE","4","1","1","5","9","9499","2017-09-18 14:20:16","10879"
"A1P0XSCJ9XAV74","caus_thomas_all_dis_v1","38F71OA9GTXVXHVAEXP0KGKD07SMFT","1","4","4","9","1","8821","2017-09-18 14:20:17","10880"
"A37UF08Y9XG9HT
A37UF08Y9XG9HT
A37UF08Y9XG9HT
A37UF08Y9XG9HT
A37UF08Y9XG9HT
A37UF08Y9XG9HT","caus_thomas_all_dis_v1","3IAS3U3I0FHFDWF1ZDKKMHFUF4K2B1","5","2","2","10","10","15726","2017-09-18 14:20:18","10881"
"AKG7VBOY97HKA","caus_thomas_all_dis_v1","31Z0PCVWUKGMVJ6O5BS0I22OWR67TC","4","4","4","5","7","13912","2017-09-18 14:20:18","10882"
"A1PJLZSOUQ4MIL","caus_thomas_all_dis_v1","3M0NZ3JDP1Z3UR14NA2L66P9QHW5ZA","7","4","4","2","8","8104","2017-09-18 14:20:22","10883"
"A1FXGNL1XM81ON","caus_thomas_all_dis_v1","3A1COHJ8NJW0QOKCFM3HIJVVWHH8HQ","0","4","4","2","9","8087","2017-09-18 14:20:24","10884"
"A8MANRICXMMV3","caus_thomas_all_dis_v1","3MX2NQ3YC9VEPW1PMSE09L9YIHZ5XE","4","2","2","2","6","7809","2017-09-18 14:20:25","10885"
" A1QR6I7UPY8XQJ
","caus_thomas_all_dis_v1","3IAS3U3I0FHFDWF1ZDKKMHFUF4KB2A","5","1","1","8","6","8674","2017-09-18 14:20:26","10886"
"A37UF08Y9XG9HT
A37UF08Y9XG9HT
A37UF08Y9XG9HT
A37UF08Y9XG9HT
A37UF08Y9XG9HT
A37UF08Y9XG9HT","caus_thomas_all_dis_v1","3IAS3U3I0FHFDWF1ZDKKMHFUF4K2B1","4","3","3","2","9","11345","2017-09-18 14:20:31","10887"
"A1A9YNR2L4DB86","caus_thomas_all_dis_v1","3OVHNO1VE62YY4GX2GK44ID13YVDZR","4","0","0","4","5","37797","2017-09-18 14:20:31","10888"
" A1QR6I7UPY8XQJ
","caus_thomas_all_dis_v1","3IAS3U3I0FHFDWF1ZDKKMHFUF4KB2A","5","2","2","4","3","5370","2017-09-18 14:20:32","10889"
"A1BH6H9WRK49I","caus_thomas_all_dis_v1","35H6S234SA116HHTL55A98WELDZ65K","8","0","0","5","1","95122","2017-09-18 14:20:34","10890"
" A1QR6I7UPY8XQJ
","caus_thomas_all_dis_v1","3IAS3U3I0FHFDWF1ZDKKMHFUF4KB2A","4","3","3","10","10","3851","2017-09-18 14:20:37","10891"
"A1SG071MSEZYM4
A1SG071MSEZYM4
A1SG071MSEZYM4
A1SGA1SG071MSEZYM4
A1SG071MSEZYM4","caus_thomas_all_dis_v1","3YWRV122CS05VAQWFLAG1YKLQPI8UQ","4","4","4","2","5","36697","2017-09-18 14:20:38","10892"
"A37UF08Y9XG9HT
A37UF08Y9XG9HT
A37UF08Y9XG9HT
A37UF08Y9XG9HT
A37UF08Y9XG9HT
A37UF08Y9XG9HT","caus_thomas_all_dis_v1","3IAS3U3I0FHFDWF1ZDKKMHFUF4K2B1","4","4","4","5","7","7487","2017-09-18 14:20:39","10893"
"A2KDVHF0E0EINH","caus_thomas_all_dis_v1","3XUHV3NRVKZH361AHOWE6ZL4URG5HL","8","1","1","7","8","45862","2017-09-18 14:20:44","10894"
"A1A9YNR2L4DB86","caus_thomas_all_dis_v1","3OVHNO1VE62YY4GX2GK44ID13YVDZR","4","1","1","6","7","12284","2017-09-18 14:20:44","10895"
" A1QR6I7UPY8XQJ
","caus_thomas_all_dis_v1","3IAS3U3I0FHFDWF1ZDKKMHFUF4KB2A","5","4","4","3","7","6811","2017-09-18 14:20:45","10896"
"ADESHZL4W6NJU","caus_thomas_all_dis_v1","31UV0MXWNQDHZ1CUN6EZ6BMJU4V5IE","8","0","0","10","5","94169","2017-09-18 14:20:45","10897"
"A1BH6H9WRK49I","caus_thomas_all_dis_v1","35H6S234SA116HHTL55A98WELDZ65K","8","1","1","7","5","13340","2017-09-18 14:20:49","10898"
"AE646CIHBMUMX","caus_thomas_all_dis_v1","3KGTPGBS6XMU9VO7Z41FR77I4PR2UI","8","1","1","1","9","38074","2017-09-18 14:20:50","10899"
"A1A9YNR2L4DB86","caus_thomas_all_dis_v1","3OVHNO1VE62YY4GX2GK44ID13YVDZR","4","2","2","3","8","6366","2017-09-18 14:20:52","10900"
"A3UQXYJ8EV62WE","caus_thomas_all_dis_v1","3EQHHY4HQST33A6ZXIEWLZ93FR3G5X","8","0","0","8","7","63208","2017-09-18 14:20:54","10901"
"A8MANRICXMMV3","caus_thomas_all_dis_v1","3MX2NQ3YC9VEPW1PMSE09L9YIHZ5XE","4","3","3","3","3","32252","2017-09-18 14:20:59","10902"
"A1BH6H9WRK49I","caus_thomas_all_dis_v1","35H6S234SA116HHTL55A98WELDZ65K","8","2","2","8","4","11267","2017-09-18 14:21:01","10903"
"AUGCETGD2JOQP","caus_thomas_all_dis_v1","3A9AA95ATWN9GNZY014JF8NVGIQ5PQ","8","0","0","9","7","56765","2017-09-18 14:21:01","10904"
"A8MANRICXMMV3","caus_thomas_all_dis_v1","3MX2NQ3YC9VEPW1PMSE09L9YIHZ5XE","4","4","4","1","5","5555","2017-09-18 14:21:05","10905"
"A1BH6H9WRK49I","caus_thomas_all_dis_v1","35H6S234SA116HHTL55A98WELDZ65K","8","3","3","2","9","6284","2017-09-18 14:21:08","10906"
"A1A9YNR2L4DB86","caus_thomas_all_dis_v1","3OVHNO1VE62YY4GX2GK44ID13YVDZR","4","3","3","8","1","16144","2017-09-18 14:21:09","10907"
"A2KDVHF0E0EINH","caus_thomas_all_dis_v1","3XUHV3NRVKZH361AHOWE6ZL4URG5HL","8","2","2","10","4","26632","2017-09-18 14:21:11","10908"
"A1A9YNR2L4DB86","caus_thomas_all_dis_v1","3OVHNO1VE62YY4GX2GK44ID13YVDZR","4","4","4","5","10","4525","2017-09-18 14:21:14","10909"
"A1BH6H9WRK49I","caus_thomas_all_dis_v1","35H6S234SA116HHTL55A98WELDZ65K","8","4","4","10","10","5213","2017-09-18 14:21:15","10910"
"A2Q1W107N7K6P1","caus_thomas_all_dis_v1","3JJVG1YBEBY7CTYOHWMIKOI6ZEB5B5","1","0","0","2","4","266637","2017-09-18 14:21:20","10911"
"AUGCETGD2JOQP","caus_thomas_all_dis_v1","3A9AA95ATWN9GNZY014JF8NVGIQ5PQ","8","1","1","1","1","20767","2017-09-18 14:21:23","10912"
"A3ITZNJQUTIZ4C","caus_thomas_all_dis_v1","3137ONMDKG63ZTZS8J7ZPTFGSK1EGV","6","2","2","1","4","88732","2017-09-18 14:21:25","10913"
"AE646CIHBMUMX","caus_thomas_all_dis_v1","3KGTPGBS6XMU9VO7Z41FR77I4PR2UI","8","2","2","8","10","39963","2017-09-18 14:21:31","10914"
"A3UQXYJ8EV62WE","caus_thomas_all_dis_v1","3EQHHY4HQST33A6ZXIEWLZ93FR3G5X","8","1","1","10","8","35880","2017-09-18 14:21:31","10915"
"A2Q1W107N7K6P1","caus_thomas_all_dis_v1","3JJVG1YBEBY7CTYOHWMIKOI6ZEB5B5","1","1","1","4","1","11901","2017-09-18 14:21:33","10916"
"AUGCETGD2JOQP","caus_thomas_all_dis_v1","3A9AA95ATWN9GNZY014JF8NVGIQ5PQ","8","2","2","8","6","10859","2017-09-18 14:21:35","10917"
"A2KDVHF0E0EINH","caus_thomas_all_dis_v1","3XUHV3NRVKZH361AHOWE6ZL4URG5HL","8","3","3","4","2","25301","2017-09-18 14:21:37","10918"
"A11QDNT3W7DT7K","caus_thomas_all_dis_v1","33FOTY3KEMMRYGPBU9G1SIB75J61CQ","8","1","1","6","10","83270","2017-09-18 14:21:38","10919"
"A3UQXYJ8EV62WE","caus_thomas_all_dis_v1","3EQHHY4HQST33A6ZXIEWLZ93FR3G5X","8","2","2","1","10","12586","2017-09-18 14:21:44","10920"
"AE646CIHBMUMX","caus_thomas_all_dis_v1","3KGTPGBS6XMU9VO7Z41FR77I4PR2UI","8","3","3","10","5","13951","2017-09-18 14:21:45","10921"
"A1SN0UU3V61IIM","caus_thomas_all_dis_v1","3DI28L7YXAF6VE9PQ0MWI6BAQVJ1EJ","3","0","0","6","7","85613","2017-09-18 14:21:46","10922"
"AUGCETGD2JOQP","caus_thomas_all_dis_v1","3A9AA95ATWN9GNZY014JF8NVGIQ5PQ","8","3","3","2","10","11235","2017-09-18 14:21:47","10923"
"A2Q1W107N7K6P1","caus_thomas_all_dis_v1","3JJVG1YBEBY7CTYOHWMIKOI6ZEB5B5","1","2","2","9","9","14236","2017-09-18 14:21:48","10924"
"A3ITZNJQUTIZ4C","caus_thomas_all_dis_v1","3137ONMDKG63ZTZS8J7ZPTFGSK1EGV","7","3","3","10","8","28784","2017-09-18 14:21:55","10925"
"A11QDNT3W7DT7K","caus_thomas_all_dis_v1","33FOTY3KEMMRYGPBU9G1SIB75J61CQ","8","2","2","4","3","17167","2017-09-18 14:21:57","10926"
"A3UQXYJ8EV62WE","caus_thomas_all_dis_v1","3EQHHY4HQST33A6ZXIEWLZ93FR3G5X","8","3","3","5","6","11240","2017-09-18 14:21:57","10927"
"AUGCETGD2JOQP","caus_thomas_all_dis_v1","3A9AA95ATWN9GNZY014JF8NVGIQ5PQ","8","4","4","7","9","10465","2017-09-18 14:21:58","10928"
"AE646CIHBMUMX","caus_thomas_all_dis_v1","3KGTPGBS6XMU9VO7Z41FR77I4PR2UI","8","4","4","6","2","12026","2017-09-18 14:21:59","10929"
"A2Q1W107N7K6P1","caus_thomas_all_dis_v1","3JJVG1YBEBY7CTYOHWMIKOI6ZEB5B5","0","3","3","10","10","11658","2017-09-18 14:22:01","10930"
"A2KDVHF0E0EINH","caus_thomas_all_dis_v1","3XUHV3NRVKZH361AHOWE6ZL4URG5HL","8","4","4","8","6","24168","2017-09-18 14:22:03","10931"
"A11QDNT3W7DT7K","caus_thomas_all_dis_v1","33FOTY3KEMMRYGPBU9G1SIB75J61CQ","8","3","3","9","5","7309","2017-09-18 14:22:05","10932"
"A2Q1W107N7K6P1","caus_thomas_all_dis_v1","3JJVG1YBEBY7CTYOHWMIKOI6ZEB5B5","2","4","4","1","3","5213","2017-09-18 14:22:07","10933"
"A1SN0UU3V61IIM","caus_thomas_all_dis_v1","3DI28L7YXAF6VE9PQ0MWI6BAQVJ1EJ","8","1","1","9","5","21083","2017-09-18 14:22:08","10934"
"A3UQXYJ8EV62WE","caus_thomas_all_dis_v1","3EQHHY4HQST33A6ZXIEWLZ93FR3G5X","5","4","4","2","5","11443","2017-09-18 14:22:09","10935"
"A28RR7H7BMA8IW","caus_thomas_all_dis_v1","3DIP6YHAPCTO6ETAPLVBXGYI41PE8G","7","0","0","5","5","42590","2017-09-18 14:22:11","10936"
"A11QDNT3W7DT7K","caus_thomas_all_dis_v1","33FOTY3KEMMRYGPBU9G1SIB75J61CQ","8","4","4","10","2","7453","2017-09-18 14:22:13","10937"
"A3ITZNJQUTIZ4C","caus_thomas_all_dis_v1","3137ONMDKG63ZTZS8J7ZPTFGSK1EGV","6","4","4","6","1","22036","2017-09-18 14:22:18","10938"
"A5JMH4GQPZB4N","caus_thomas_all_dis_v1","3U088ZLJVKU05PAYFHC2Q7Z0S7HW0Q","8","0","0","4","4","75625","2017-09-18 14:22:30","10939"
"A1ZZ4RZNJ73HPT","caus_thomas_all_dis_v1","3B1NLC6UGZX7WKOIHXNAJ5EK6R4GPJ","2","0","0","5","2","28723","2017-09-18 14:22:30","10940"
"A1SN0UU3V61IIM","caus_thomas_all_dis_v1","3DI28L7YXAF6VE9PQ0MWI6BAQVJ1EJ","5","2","2","4","3","24059","2017-09-18 14:22:33","10941"
"AURYD2FH3FUOQ","caus_thomas_all_dis_v1","3X0H8UUIT1P06YUAOJVM0D5JNZ0WSD","5","0","0","10","7","500036","2017-09-18 14:22:39","10942"
"A2S3SV1LQTKJ8K","caus_thomas_all_dis_v1","3Z7VU45IPYI4690LMN093GCSE1S1ZP","8","0","0","7","3","44768","2017-09-18 14:22:41","10943"
"A1ZZ4RZNJ73HPT","caus_thomas_all_dis_v1","3B1NLC6UGZX7WKOIHXNAJ5EK6R4GPJ","5","1","1","3","6","13151","2017-09-18 14:22:44","10944"
"A1OE4SDOGXFOUP","caus_thomas_all_dis_v1","3FTOP5WARFPEZ5AZ8ITN1H5SQB9J0J","8","0","0","9","8","74087","2017-09-18 14:22:48","10945"
"A1SN0UU3V61IIM","caus_thomas_all_dis_v1","3DI28L7YXAF6VE9PQ0MWI6BAQVJ1EJ","1","3","3","2","6","15501","2017-09-18 14:22:50","10946"
"A5JMH4GQPZB4N","caus_thomas_all_dis_v1","3U088ZLJVKU05PAYFHC2Q7Z0S7HW0Q","8","1","1","5","5","19551","2017-09-18 14:22:50","10947"
"A1ZZ4RZNJ73HPT","caus_thomas_all_dis_v1","3B1NLC6UGZX7WKOIHXNAJ5EK6R4GPJ","8","2","2","1","9","7172","2017-09-18 14:22:52","10948"
"AURYD2FH3FUOQ","caus_thomas_all_dis_v1","3X0H8UUIT1P06YUAOJVM0D5JNZ0WSD","5","1","1","1","4","14223","2017-09-18 14:22:54","10949"
"A2D8G4WJIZ3URG","caus_thomas_all_dis_v1","3O7L7BFSHEQHVK5NY772A5SW7XUEIO","7","0","0","6","10","54545","2017-09-18 14:23:00","10950"
"A2S3SV1LQTKJ8K","caus_thomas_all_dis_v1","3Z7VU45IPYI4690LMN093GCSE1S1ZP","8","1","1","8","5","19642","2017-09-18 14:23:01","10951"
"A1ZZ4RZNJ73HPT","caus_thomas_all_dis_v1","3B1NLC6UGZX7WKOIHXNAJ5EK6R4GPJ","5","3","3","4","4","9984","2017-09-18 14:23:03","10952"
"A1SN0UU3V61IIM","caus_thomas_all_dis_v1","3DI28L7YXAF6VE9PQ0MWI6BAQVJ1EJ","8","4","4","10","1","13715","2017-09-18 14:23:04","10953"
"ADESHZL4W6NJU","caus_thomas_all_dis_v1","31UV0MXWNQDHZ1CUN6EZ6BMJU4V5IE","8","1","1","8","10","141016","2017-09-18 14:23:07","10954"
"AURYD2FH3FUOQ","caus_thomas_all_dis_v1","3X0H8UUIT1P06YUAOJVM0D5JNZ0WSD","5","2","2","4","5","12765","2017-09-18 14:23:08","10955"
"A5JMH4GQPZB4N","caus_thomas_all_dis_v1","3U088ZLJVKU05PAYFHC2Q7Z0S7HW0Q","8","2","2","3","3","18749","2017-09-18 14:23:10","10956"
"A1ZZ4RZNJ73HPT","caus_thomas_all_dis_v1","3B1NLC6UGZX7WKOIHXNAJ5EK6R4GPJ","1","4","4","8","3","8760","2017-09-18 14:23:13","10957"
"A2D8G4WJIZ3URG","caus_thomas_all_dis_v1","3O7L7BFSHEQHVK5NY772A5SW7XUEIO","3","1","1","2","4","12622","2017-09-18 14:23:14","10958"
"A28RR7H7BMA8IW","caus_thomas_all_dis_v1","3DIP6YHAPCTO6ETAPLVBXGYI41PE8G","6","1","1","4","2","63161","2017-09-18 14:23:15","10959"
"A2S3SV1LQTKJ8K","caus_thomas_all_dis_v1","3Z7VU45IPYI4690LMN093GCSE1S1ZP","8","2","2","1","9","15152","2017-09-18 14:23:17","10960"
"A1OE4SDOGXFOUP","caus_thomas_all_dis_v1","3FTOP5WARFPEZ5AZ8ITN1H5SQB9J0J","8","1","1","2","5","30222","2017-09-18 14:23:20","10961"
"A1X79L9S8T2A0Z","caus_thomas_all_dis_v1","3Z4XG4ZF48SXCEKRKQL3L5JPK708XJ","8","0","0","9","6","140292","2017-09-18 14:23:22","10962"
"A5JMH4GQPZB4N","caus_thomas_all_dis_v1","3U088ZLJVKU05PAYFHC2Q7Z0S7HW0Q","8","3","3","8","10","10714","2017-09-18 14:23:22","10963"
"A3RUKNCDJBNV6Y","caus_thomas_all_dis_v1","3GFK2QRXX9IZ0WWZCNIE72VR9FT5WL","7","0","0","5","1","62635","2017-09-18 14:23:22","10964"
"A2D8G4WJIZ3URG","caus_thomas_all_dis_v1","3O7L7BFSHEQHVK5NY772A5SW7XUEIO","3","2","2","7","7","10868","2017-09-18 14:23:25","10965"
"ADESHZL4W6NJU","caus_thomas_all_dis_v1","31UV0MXWNQDHZ1CUN6EZ6BMJU4V5IE","8","2","2","2","1","18383","2017-09-18 14:23:26","10966"
"A5JMH4GQPZB4N","caus_thomas_all_dis_v1","3U088ZLJVKU05PAYFHC2Q7Z0S7HW0Q","8","4","4","7","6","6947","2017-09-18 14:23:30","10967"
"A2S3SV1LQTKJ8K","caus_thomas_all_dis_v1","3Z7VU45IPYI4690LMN093GCSE1S1ZP","8","3","3","2","6","11394","2017-09-18 14:23:30","10968"
"A28RR7H7BMA8IW","caus_thomas_all_dis_v1","3DIP6YHAPCTO6ETAPLVBXGYI41PE8G","7","2","2","2","9","16513","2017-09-18 14:23:33","10969"
"A2ESHUE4PV9GIT","caus_thomas_all_dis_v1","3NVC2EB65Q00BM4VD5C9D2IN6R23YS","8","0","0","5","3","42009","2017-09-18 14:23:35","10970"
"ADESHZL4W6NJU","caus_thomas_all_dis_v1","31UV0MXWNQDHZ1CUN6EZ6BMJU4V5IE","8","3","3","4","6","12010","2017-09-18 14:23:39","10971"
"AS3NVQVA4OC91","caus_thomas_all_dis_v1","3RUIQRXJBBPXRRNL0WRJFGA8XYPLLW","8","0","0","10","2","52821","2017-09-18 14:23:40","10972"
"A2S3SV1LQTKJ8K","caus_thomas_all_dis_v1","3Z7VU45IPYI4690LMN093GCSE1S1ZP","8","4","4","3","8","9448","2017-09-18 14:23:40","10973"
"A2D8G4WJIZ3URG","caus_thomas_all_dis_v1","3O7L7BFSHEQHVK5NY772A5SW7XUEIO","1","3","3","10","5","14179","2017-09-18 14:23:40","10974"
"A1OE4SDOGXFOUP","caus_thomas_all_dis_v1","3FTOP5WARFPEZ5AZ8ITN1H5SQB9J0J","8","2","2","7","10","21554","2017-09-18 14:23:42","10975"
"A3RUKNCDJBNV6Y","caus_thomas_all_dis_v1","3GFK2QRXX9IZ0WWZCNIE72VR9FT5WL","4","1","1","10","10","21003","2017-09-18 14:23:44","10976"
"A2ESHUE4PV9GIT","caus_thomas_all_dis_v1","3NVC2EB65Q00BM4VD5C9D2IN6R23YS","5","1","1","4","4","8983","2017-09-18 14:23:45","10977"
"A28RR7H7BMA8IW","caus_thomas_all_dis_v1","3DIP6YHAPCTO6ETAPLVBXGYI41PE8G","7","3","3","9","4","11817","2017-09-18 14:23:45","10978"
"A2D8G4WJIZ3URG","caus_thomas_all_dis_v1","3O7L7BFSHEQHVK5NY772A5SW7XUEIO","2","4","4","4","1","7016","2017-09-18 14:23:48","10979"
"A37Q3659BNZQNZ","caus_thomas_all_dis_v1","3C2NJ6JBKAIHE54Y23PTDCFOWTXN2A","7","0","0","7","8","41410","2017-09-18 14:23:49","10980"
"ADESHZL4W6NJU","caus_thomas_all_dis_v1","31UV0MXWNQDHZ1CUN6EZ6BMJU4V5IE","8","4","4","5","7","10507","2017-09-18 14:23:52","10981"
"COPIEDA2EJ06OGI9671","caus_thomas_all_dis_v1","3XM0HYN6NK09C6SRB2XMJ2T8TBPEP0","3","0","0","5","7","39924","2017-09-18 14:23:52","10982"
"A31C3PYKA89BDK","caus_thomas_all_dis_v1","3300DTYQT2IUCIT6BFCBJ7JIY7BEQR","0","0","0","4","3","53976","2017-09-18 14:23:53","10983"
"A2ESHUE4PV9GIT","caus_thomas_all_dis_v1","3NVC2EB65Q00BM4VD5C9D2IN6R23YS","8","2","2","10","8","8202","2017-09-18 14:23:54","10984"
"A3RUKNCDJBNV6Y","caus_thomas_all_dis_v1","3GFK2QRXX9IZ0WWZCNIE72VR9FT5WL","6","2","2","9","5","14056","2017-09-18 14:23:59","10985"
"A1X79L9S8T2A0Z","caus_thomas_all_dis_v1","3Z4XG4ZF48SXCEKRKQL3L5JPK708XJ","8","1","1","5","8","38432","2017-09-18 14:24:01","10986"
"A1OE4SDOGXFOUP","caus_thomas_all_dis_v1","3FTOP5WARFPEZ5AZ8ITN1H5SQB9J0J","8","3","3","5","3","17858","2017-09-18 14:24:01","10987"
"A37Q3659BNZQNZ","caus_thomas_all_dis_v1","3C2NJ6JBKAIHE54Y23PTDCFOWTXN2A","7","1","1","4","5","14153","2017-09-18 14:24:04","10988"
"AS3NVQVA4OC91","caus_thomas_all_dis_v1","3RUIQRXJBBPXRRNL0WRJFGA8XYPLLW","8","1","1","2","7","22804","2017-09-18 14:24:04","10989"
"A2ESHUE4PV9GIT","caus_thomas_all_dis_v1","3NVC2EB65Q00BM4VD5C9D2IN6R23YS","4","3","3","1","10","10997","2017-09-18 14:24:06","10990"
"A3RUKNCDJBNV6Y","caus_thomas_all_dis_v1","3GFK2QRXX9IZ0WWZCNIE72VR9FT5WL","7","3","3","1","2","8744","2017-09-18 14:24:09","10991"
"A2ESHUE4PV9GIT","caus_thomas_all_dis_v1","3NVC2EB65Q00BM4VD5C9D2IN6R23YS","7","4","4","9","9","5018","2017-09-18 14:24:12","10992"
" A10WU6W59U285S","caus_thomas_all_dis_v1","3D8YOU6S9ELIRW78M6DIHKOUKUT6U3","8","0","0","10","5","85249","2017-09-18 14:24:12","10993"
"A31C3PYKA89BDK","caus_thomas_all_dis_v1","3300DTYQT2IUCIT6BFCBJ7JIY7BEQR","3","1","1","7","4","18860","2017-09-18 14:24:13","10994"
"A37Q3659BNZQNZ","caus_thomas_all_dis_v1","3C2NJ6JBKAIHE54Y23PTDCFOWTXN2A","7","2","2","5","1","8744","2017-09-18 14:24:13","10995"
"AS3NVQVA4OC91","caus_thomas_all_dis_v1","3RUIQRXJBBPXRRNL0WRJFGA8XYPLLW","8","2","2","7","3","12106","2017-09-18 14:24:17","10996"
"ALVDFSFKVL47P","caus_thomas_all_dis_v1","3W8CV64QJ2004T3MKE9VIFQ6GNZ9HG","8","0","0","3","2","69987","2017-09-18 14:24:18","10997"
"A1X79L9S8T2A0Z","caus_thomas_all_dis_v1","3Z4XG4ZF48SXCEKRKQL3L5JPK708XJ","8","2","2","4","1","18661","2017-09-18 14:24:21","10998"
"A37Q3659BNZQNZ","caus_thomas_all_dis_v1","3C2NJ6JBKAIHE54Y23PTDCFOWTXN2A","8","3","3","1","10","6712","2017-09-18 14:24:21","10999"
"A2C2WXXKJOLCZ2","caus_thomas_all_dis_v1","3R6P78PK7KC5OCHPYEWUOFFHVUOGTN","6","0","0","7","2","57451","2017-09-18 14:24:21","11000"
"A37X1GHLB2HCX7","caus_thomas_all_dis_v1","3SKRO2GZ71S9HE1ZMMXZG1OFASFK1M","0","0","0","2","8","28353","2017-09-18 14:24:22","11001"
"A1OE4SDOGXFOUP","caus_thomas_all_dis_v1","3FTOP5WARFPEZ5AZ8ITN1H5SQB9J0J","8","4","4","3","1","21167","2017-09-18 14:24:23","11002"
"A1QP4NP83WGF17","caus_thomas_all_dis_v1","39DD6S19JPC3QAUXYBVOA0VM3AWEZL","8","0","0","9","7","21062","2017-09-18 14:24:25","11003"
"A3RUKNCDJBNV6Y","caus_thomas_all_dis_v1","3GFK2QRXX9IZ0WWZCNIE72VR9FT5WL","4","4","4","8","9","15249","2017-09-18 14:24:25","11004"
"A31C3PYKA89BDK","caus_thomas_all_dis_v1","3300DTYQT2IUCIT6BFCBJ7JIY7BEQR","0","2","2","1","10","13509","2017-09-18 14:24:27","11005"
"AS3NVQVA4OC91","caus_thomas_all_dis_v1","3RUIQRXJBBPXRRNL0WRJFGA8XYPLLW","8","3","3","6","9","10476","2017-09-18 14:24:29","11006"
"A37Q3659BNZQNZ","caus_thomas_all_dis_v1","3C2NJ6JBKAIHE54Y23PTDCFOWTXN2A","8","4","4","2","3","6707","2017-09-18 14:24:29","11007"
"A28RR7H7BMA8IW","caus_thomas_all_dis_v1","3DIP6YHAPCTO6ETAPLVBXGYI41PE8G","7","4","4","3","10","43261","2017-09-18 14:24:30","11008"
"AURYD2FH3FUOQ","caus_thomas_all_dis_v1","3X0H8UUIT1P06YUAOJVM0D5JNZ0WSD","5","3","3","6","9","82383","2017-09-18 14:24:31","11009"
"A1QP4NP83WGF17","caus_thomas_all_dis_v1","39DD6S19JPC3QAUXYBVOA0VM3AWEZL","0","1","1","5","9","10272","2017-09-18 14:24:36","11010"
"A1X79L9S8T2A0Z","caus_thomas_all_dis_v1","3Z4XG4ZF48SXCEKRKQL3L5JPK708XJ","8","3","3","7","7","15564","2017-09-18 14:24:37","11011"
"AS3NVQVA4OC91","caus_thomas_all_dis_v1","3RUIQRXJBBPXRRNL0WRJFGA8XYPLLW","8","4","4","3","4","7683","2017-09-18 14:24:37","11012"
"AURYD2FH3FUOQ","caus_thomas_all_dis_v1","3X0H8UUIT1P06YUAOJVM0D5JNZ0WSD","5","4","4","2","8","5353","2017-09-18 14:24:38","11013"
"A37X1GHLB2HCX7","caus_thomas_all_dis_v1","3SKRO2GZ71S9HE1ZMMXZG1OFASFK1M","6","1","1","3","1","16051","2017-09-18 14:24:39","11014"
"A2C2WXXKJOLCZ2","caus_thomas_all_dis_v1","3R6P78PK7KC5OCHPYEWUOFFHVUOGTN","6","1","1","6","7","22206","2017-09-18 14:24:44","11015"
"A1QP4NP83WGF17","caus_thomas_all_dis_v1","39DD6S19JPC3QAUXYBVOA0VM3AWEZL","8","2","2","8","3","7678","2017-09-18 14:24:45","11016"
"A1QP4NP83WGF17","caus_thomas_all_dis_v1","39DD6S19JPC3QAUXYBVOA0VM3AWEZL","0","3","3","3","10","5631","2017-09-18 14:24:51","11017"
"A37X1GHLB2HCX7","caus_thomas_all_dis_v1","3SKRO2GZ71S9HE1ZMMXZG1OFASFK1M","8","2","2","8","5","11508","2017-09-18 14:24:51","11018"
"A1X79L9S8T2A0Z","caus_thomas_all_dis_v1","3Z4XG4ZF48SXCEKRKQL3L5JPK708XJ","8","4","4","1","5","14066","2017-09-18 14:24:52","11019"
" A10WU6W59U285S","caus_thomas_all_dis_v1","3D8YOU6S9ELIRW78M6DIHKOUKUT6U3","8","1","1","4","1","40876","2017-09-18 14:24:54","11020"
"ALVDFSFKVL47P","caus_thomas_all_dis_v1","3W8CV64QJ2004T3MKE9VIFQ6GNZ9HG","8","1","1","10","3","37065","2017-09-18 14:24:56","11021"
"A1QP4NP83WGF17","caus_thomas_all_dis_v1","39DD6S19JPC3QAUXYBVOA0VM3AWEZL","0","4","4","4","4","5028","2017-09-18 14:24:58","11022"
"A37X1GHLB2HCX7","caus_thomas_all_dis_v1","3SKRO2GZ71S9HE1ZMMXZG1OFASFK1M","0","3","3","7","10","7774","2017-09-18 14:25:00","11023"
