"subject","version","assignmentId","rating","question_ind","trial_ind","focal_high","alt_high","alt2_high","greenSecond","rt","stamp","id"
"ADU3XKPX6TTSA","caus_thomas_fire_v2","3QY7M81QH7NNS0G1B2E8HBFSF547KF","7","0","0","0","1","0",,"37144","2017-09-28 15:34:48","20381"
"A1QQQ7KKM896QY","caus_thomas_fire_v2","369J354OFDBZME6D21O1D5N3DD46GD","8","0","0","1","1","0",,"43022","2017-09-28 15:36:11","20382"
"AI16MTKPZNZXL","caus_thomas_fire_v2","3I7DHKZYGN1XPAA4MY8E3E9RG3TF57","1","0","0","1","1","0",,"36541","2017-09-28 15:37:34","20383"
"A18JL6HP8XBU37","caus_thomas_fire_v2","3V0Z7YWSIY1UMAD74UBKNT91KNRV2B","6","0","0","0","1","0",,"42869","2017-09-28 15:43:47","20384"
"A2NT3OQZUUZPEO","caus_thomas_fire_v2","3LUY3GC63Z1O3RDHOUJGDS1R9FA7PG","4","0","0","1","0","1",,"50323","2017-09-28 15:44:40","20385"
"ABVMLQWTQQEWI","caus_thomas_fire_v2","3A7Y0R2P2OPMWVGABUIUAVS329LXJ3","6","0","0","1","1","1",,"81102","2017-09-28 15:47:01","20386"
"A2BOTRWMX54PI5","caus_thomas_fire_v2","3AMW0RGHOD3D6C5441059PNH9UIPNC","4","0","0","0","1","1",,"8672","2017-09-28 15:47:53","20387"
"A1MY057566QSGK","caus_thomas_fire_v2","34T446B1C0FRRR4TYQC1EDSX2ITC0B","6","0","0","1","1","1",,"40863","2017-09-28 15:52:43","20388"
"A308FEI88TJ8WV","caus_thomas_fire_v2","3JMSRU9HQIVMHQPNXE6LPUIQHQJEVY","7","0","0","1","0","1",,"76038","2017-09-28 15:54:41","20389"
"A1VHFF2VC2XG7P","caus_thomas_fire_v2","3ZV9H2YQQD8WMH9VY4ULS5X7XAW3W7","8","0","0","1","1","1",,"26061","2017-09-28 15:57:07","20390"
"AIJG4RDIFTTHS","caus_thomas_fire_v2","3K772S5NP8CHZPU3SPPHATRH9B9HEC","7","0","0","0","1","0",,"33365","2017-09-28 15:59:12","20391"
"A3AS0PZ4WBBTDR","caus_thomas_fire_v2","3G5F9DBFOPYY10GPNFERAXF396CVHW","8","0","0","0","0","0",,"31792","2017-09-28 16:01:56","20392"
"A39D8KX7ND3G23","caus_thomas_fire_v2","3HMIGG0U4L7MCJA1PM754JQYO4Q8Y5","7","0","0","1","1","1",,"27822","2017-09-28 16:11:28","20393"
"A32HOP24A7EMRS","caus_thomas_fire_v2","33PPO7FECVGC3ERN2CWI4NAB9CQIDG","5","0","0","0","0","0",,"49847","2017-09-28 16:19:31","20394"
"A1EPR9V3VID3RI","caus_thomas_fire_v2","3A7Y0R2P2OPMWVGABUIUAVS329RJXV","6","0","0","0","1","1",,"22789","2017-09-28 16:22:01","20395"
"AC1OVYOBOD9EN
","caus_thomas_fire_v2","3C2NJ6JBKAIHE54Y23PTDCFOYKX2N9","7","0","0","1","1","0",,"23429","2017-09-28 16:30:55","20396"
"A2XNIZD98WBDTT","caus_thomas_fire_v2","36TFCYNS44BQ5PLKNUF9YICOPHPHXQ","8","0","0","1","1","0",,"49155","2017-09-28 16:32:08","20397"
"A3BGORP58P2F7Q","caus_thomas_fire_v2","32Z9ZLUT1LL3BG7SM3SDF5LVDDFOHN","6","0","0","0","0","0",,"274842","2017-09-28 16:34:11","20398"
" A1BUPHFE3UME96","caus_thomas_fire_v2","3L70J4KAZGNXXW8PQO45NPMSW4PDAB","5","0","0","1","0","1",,"34538","2017-09-28 16:39:51","20399"
"AGYZ0GAAUIJZX","caus_thomas_fire_v2","3U4J9857OECMZXC75P1FI8W2SB87B8","7","0","0","1","1","0",,"36845","2017-09-28 16:45:54","20400"
"A2S3SV1LQTKJ8K","caus_thomas_fire_v2","32N49TQG3GJJRD8BH94ZTBSZWCYVAZ","8","0","0","1","1","0",,"41382","2017-09-28 17:14:37","20405"
"A1HN4550TIXQBZ","caus_thomas_fire_v2","3YT88D1N08Z5RHFE9QBI4U3CA403KQ","8","0","0","0","0","0",,"10293","2017-09-28 17:14:43","20406"
"A3P0G3SA4ZCAKX","caus_thomas_fire_v2","3ZY8KE4ISJ4BETFS651LJB740UKVQ6","8","0","0","1","0","0",,"37290","2017-09-28 17:14:57","20407"
"A2FI2VTA8JVYS6","caus_thomas_fire_v2","3HFNH7HEMHFSWWPXHA2ZJA4UDFWQGC","6","0","0","1","1","1",,"5723","2017-09-28 17:14:59","20408"
"A1ZD8RU6YB0VEU","caus_thomas_fire_v2","3GDTJDAPVUCMI2LN6JJUAO3RFVN8MS","8","0","0","1","0","1",,"42208","2017-09-28 17:14:59","20409"
"A6IXZ9TCZYH96","caus_thomas_fire_v2","3LRLIPTPEQA5B2EZI5QSR2HIGESAKT","7","0","0","1","0","0",,"30015","2017-09-28 17:15:04","20410"
"A3UVLFU06C28RE","caus_thomas_fire_v2","378XPAWRUCEE57OBI25GEM25OA3AII","8","0","0","1","1","1",,"51425","2017-09-28 17:15:21","20411"
"A1TARNH07A75CG","caus_thomas_fire_v2","39JEC7537U27KS591N0QZ6INWFJVC1","8","0","0","0","1","0",,"26931","2017-09-28 17:15:23","20412"
"A1I9ZBV75AVWUS","caus_thomas_fire_v2","3DUZQ9U6SMPNR9U5Y9QQEBM5II5VSV","8","0","0","1","1","1",,"14178","2017-09-28 17:15:30","20413"
"A2DPKKEEW2I6QK","caus_thomas_fire_v2","3LKC68YZ3A4L862HH2EDG8VIS25OW2","3","0","0","1","1","1",,"2288","2017-09-28 17:15:30","20414"
"A3O3RIY1ELZ6YR","caus_thomas_fire_v2","3UNH76FOCS61X8C5JNHO91RT8APYMV","8","0","0","1","0","1",,"44295","2017-09-28 17:15:39","20415"
"AS2WTWYVRW9BV","caus_thomas_fire_v2","3SNLUL3WO4O0AHAF9AJK636RCHPLUJ","2","0","0","1","1","0",,"17899","2017-09-28 17:15:47","20416"
"A3IPMCB9WI5B3M","caus_thomas_fire_v2","3Z2R0DQ0JHFDKZRL94MANPLFKT4E26","8","0","0","1","1","1",,"23438","2017-09-28 17:15:55","20417"
"A21H6PJDHFR74C","caus_thomas_fire_v2","3KXIR214I4HVSXUSKYAXE39O74A42Q","6","0","0","1","0","1",,"24887","2017-09-28 17:15:59","20418"
"ATAHQP6QL09TX","caus_thomas_fire_v2","3C44YUNSI1Q4K0ERF7M2DKBNVRVDPZ","8","0","0","0","0","0",,"23964","2017-09-28 17:16:18","20419"
"A2NG2CCBMVEBIA","caus_thomas_fire_v2","3VP0C6EFSGXZEO2ZD4MWQA7090XM6K","7","0","0","1","0","1",,"29260","2017-09-28 17:16:27","20420"
"A501C56C7Q7H5","caus_thomas_fire_v2","3QJOXOW4XJS3R3VEJM5U2YZDQYLEMX","7","0","0","1","1","1",,"35848","2017-09-28 17:16:32","20421"
"A1KL6VGWS7GCFB","caus_thomas_fire_v2","37WLF8U1WPR4O02WSS9GBXFWKV2K6D","6","0","0","1","0","1",,"2646","2017-09-28 17:16:34","20422"
"A35YSX8UNA6HG7","caus_thomas_fire_v2","3X1FV8S5JXSK14LE39W9PX32U7CGVX","8","0","0","0","0","1",,"66357","2017-09-28 17:16:59","20423"
"A2FBP73AQACKZ2","caus_thomas_fire_v2","3RSDURM96AN3LKKS2PT5WTMKZ8ZEYN","7","0","0","1","0","0",,"33459","2017-09-28 17:17:05","20424"
"A22KRF782ELLB0","caus_thomas_fire_v2","3X73LLYYQ1FLTV7GLOS00GLQN4NHNG","5","0","0","1","0","0",,"39584","2017-09-28 17:17:08","20425"
"A33QX0QXEX943S","caus_thomas_fire_v2","3WS1NTTKEYDYU3O3PS22MJD0ZWZF05","6","0","0","1","0","1",,"38239","2017-09-28 17:17:14","20426"
"AYMKSM9M10GR5","caus_thomas_fire_v2","33IZTU6J812FVYZ0YOR82WJQYTEXS1","8","0","0","1","1","1",,"28008","2017-09-28 17:17:19","20427"
"A2E2UARVOVDR9Y","caus_thomas_fire_v2","3TK8OJTYM1MQEHED6SMWJ6HUVYZPVA","7","0","0","1","1","1",,"52376","2017-09-28 17:17:24","20428"
"AG7C4X3WKKBV","caus_thomas_fire_v2","39ASUFLU6X8ELFUIXT73DFFBX25EXH","7","0","0","0","1","1",,"35441","2017-09-28 17:17:24","20429"
"AEQ6KLNVTRKKR","caus_thomas_fire_v2","33TIN5LC04BMQOTBUEDJ4FL98BJY9X","7","0","0","0","0","1",,"20417","2017-09-28 17:17:31","20430"
"A3TW179Z0GG8JG","caus_thomas_fire_v2","39GAF6DQWR1NXPVBLQB6IAZWSITV1C","8","0","0","0","0","1",,"62652","2017-09-28 17:17:37","20431"
"A3HHDPKL3O3O7Y","caus_thomas_fire_v2","3B837J3LDOXVY2DOPPLGDEX2XCTSR0","7","0","0","1","1","1",,"26035","2017-09-28 17:17:43","20432"
"A3QV5I5SIRLBHS
A3QV5I5SIRLBHS
 A3QV5I5SIRLBHS
","caus_thomas_fire_v2","3KMS4QQVK2R07TV7TLCK53S9DU5KFG","4","0","0","0","1","1",,"49939","2017-09-28 17:17:53","20433"
"A1EJ8KMQXV9DRU","caus_thomas_fire_v2","35K3O9HUABEXLT3XXZ1H78F4TX9FER","8","0","0","1","0","0",,"53937","2017-09-28 17:17:55","20434"
"A11KP7FK5KS9H1","caus_thomas_fire_v2","32M8BPYGATNFFY1E42XQA8D8M5GGI0","8","0","0","1","1","0",,"22950","2017-09-28 17:17:58","20435"
"A3UQXYJ8EV62WE","caus_thomas_fire_v2","3U088ZLJVKU05PAYFHC2Q7Z0UZP0WO","6","0","0","0","0","1",,"39685","2017-09-28 17:18:11","20436"
"A31ZMKF1XY6SFF","caus_thomas_fire_v2","34J10VATJFZ6SNVS7Y224MHASSOQI4","8","0","0","0","1","0",,"38740","2017-09-28 17:18:19","20437"
"A369VZD291G1GL","caus_thomas_fire_v2","3EKVH9QMEY58STDLD9BQH73UKH42D2","4","0","0","0","1","0",,"45394","2017-09-28 17:18:23","20438"
"A3VOYK4UGI5BJF","caus_thomas_fire_v2","31UV0MXWNQDHZ1CUN6EZ6BMJWW35I8","7","0","0","1","0","1",,"32106","2017-09-28 17:18:24","20439"
"A3TK7HVFEKB00R","caus_thomas_fire_v2","3D4CH1LGEAUM4X8B08RDXFE53FUG9I","8","0","0","0","0","0",,"23567","2017-09-28 17:18:25","20440"
"A1D4I1QYL9713I","caus_thomas_fire_v2","3WS1NTTKEYDYU3O3PS22MJD0ZW00FR","8","0","0","1","0","0",,"29000","2017-09-28 17:18:43","20441"
"A1OSRB1Q63XXWZ","caus_thomas_fire_v2","3RRCEFRB7MDPGAUO3R38FWCS1AOB40","2","0","0","1","1","0",,"30951","2017-09-28 17:19:27","20442"
"A1BAEFJ2OG7NJ0","caus_thomas_fire_v2","31Q0U3WYDPGLMZUF3S8QCWJT60N17R","1","0","0","0","1","1",,"35880","2017-09-28 17:19:29","20443"
"AA4O2W236E3FW","caus_thomas_fire_v2","3N4BPTXIO8TPQBSXOA7JR3TCNHKUKP","5","0","0","1","0","1",,"38011","2017-09-28 17:19:30","20444"
"AHUKCHMKUJHQQ","caus_thomas_fire_v2","31JLPPHS2UVOH80T7I3BBBKLU9B3OB","4","0","0","1","0","1",,"34297","2017-09-28 17:20:01","20445"
"A2WQTNO91C05GC","caus_thomas_fire_v2","3IKZ72A5B4H1FZGAQY40XV9D7PANFO","3","0","0","0","1","0",,"36693","2017-09-28 17:20:23","20446"
"A15Y215D57OSO5","caus_thomas_fire_v2","31LM9EDVOLTHK1269OVLCT150WSJNO","2","0","0","0","1","1",,"18816","2017-09-28 17:20:33","20447"
"A197KLY88OBJ89","caus_thomas_fire_v2","3HYA4D452RK5QDRH4F6G576FWUKF2Q","8","0","0","1","1","0",,"36813","2017-09-28 17:20:34","20448"
"ALL5YYZDJ4FB2","caus_thomas_fire_v2","33NF62TLXJ3GCVH3CB35K1K161MKJJ","4","0","0","0","0","1",,"2404","2017-09-28 17:20:44","20449"
"A3OXRDSUN9F10I","caus_thomas_fire_v2","3VD82FOHKQPCU8WC0BEC4EOF0MNCOH","0","0","0","1","1","1",,"32752","2017-09-28 17:21:04","20450"
"A18Q2TSYBDWQU1
","caus_thomas_fire_v2","3STRJBFXOWSAQYD8O5H9M77A43EKTP","7","0","0","1","1","1",,"24195","2017-09-28 17:21:21","20451"
"A30CKD84V82EH2","caus_thomas_fire_v2","3S0TNUHWKTJJE8FATQKRRYGX6HVD8F","7","0","0","1","0","1",,"31150","2017-09-28 17:21:22","20452"
"A3ESZWJBD8M1Z","caus_thomas_fire_v2","38SKSKU7R1YV1QFFFTU6N0IGIM2LIB","8","0","0","1","1","1",,"37194","2017-09-28 17:21:26","20453"
"A7KLTVEIASF4J","caus_thomas_fire_v2","38SKSKU7R1YV1QFFFTU6N0IGIM3LIC","4","0","0","1","1","1",,"20636","2017-09-28 17:21:40","20454"
"A2MKXI4KCRRI7Y","caus_thomas_fire_v2","3U0SRXB7CD6YIPLJHT4UEKNWADMRNO","6","0","0","1","1","0",,"37668","2017-09-28 17:21:57","20455"
"AJACXA5FC5BYZ","caus_thomas_fire_v2","3C2NJ6JBKAIHE54Y23PTDCFOYL72NL","7","0","0","0","1","1",,"31317","2017-09-28 17:22:05","20456"
"A2TFMDDIPNF02W","caus_thomas_fire_v2","3IJXV6UZ1XK64OASKDR29CRFOESRI8","7","0","0","0","0","0",,"68464","2017-09-28 17:22:07","20457"
"AXPGZD6Q9556W","caus_thomas_fire_v2","3OSWBBLG1EY9T9GI1YWJ7XXQXQ5XD8","6","0","0","0","1","0",,"32537","2017-09-28 17:22:12","20458"
"A38ECJNH8AQKV4
A38ECJNH8AQKV4
","caus_thomas_fire_v2","3EWIJTFFVO86OPO7UHIW41S0NVM0EA","5","0","0","1","0","1",,"28382","2017-09-28 17:22:20","20459"
"A3IC7ZQ257WUNV","caus_thomas_fire_v2","3YT88D1N08Z5RHFE9QBI4U3CA423KS","6","0","0","0","0","0",,"18044","2017-09-28 17:22:34","20460"
"A3215OUK1JCUHJ","caus_thomas_fire_v2","31T4R4OBOSH5924DJPXATS2KAXEC7S","7","0","0","0","1","0",,"89408","2017-09-28 17:22:41","20461"
"A35T0SNF90U1W5","caus_thomas_fire_v2","3WS1NTTKEYDYU3O3PS22MJD0ZW10FS","8","0","0","1","1","1",,"53819","2017-09-28 17:22:42","20462"
"A17H9ST6MW8HND","caus_thomas_fire_v2","3BDCF01OGXVHRQUKJBG99OC4850LYH","7","0","0","1","1","0",,"16781","2017-09-28 17:23:05","20463"
"A2H6RIWM50KWA4","caus_thomas_fire_v2","3A1COHJ8NJW0QOKCFM3HIJVVY9Q8HL","8","0","0","1","1","1",,"43717","2017-09-28 17:23:08","20464"
"A112LUS6RHBNYB","caus_thomas_fire_v2","37QW5D2ZRGNPGXYSQGFGMX2X7K6S8P","6","0","0","0","0","0",,"23899","2017-09-28 17:23:38","20465"
"A30MP4LXV4MIFD","caus_thomas_fire_v2","3483FV8BEEK97KY63M3CB1T23VI62F","6","0","0","1","0","0",,"70246","2017-09-28 17:23:51","20466"
"A3MUB3Y6CYCIJL","caus_thomas_fire_v2","3WQQ9FUS6AVQZBHQFUTLW8SX3WLB88","6","0","0","0","1","0",,"48323","2017-09-28 17:23:52","20467"
"A326O3VWP8TO8N","caus_thomas_fire_v2","3MTMREQS4VJW628G7J9VFDBD3L0WAA","6","0","0","1","0","0",,"26775","2017-09-28 17:24:13","20468"
"A36PL5KK0B3XKQ","caus_thomas_fire_v2","3YW4XOSQKQMNKA6BG011MOXDEBM1UV","5","0","0","0","0","0",,"36645","2017-09-28 17:24:25","20469"
"A2JKQNCI1D3JA6","caus_thomas_fire_v2","32VNZTT0A75CWHBDZOPYFBHWJWS4R7","3","0","0","0","1","0",,"76413","2017-09-28 17:25:29","20470"
"A1GKEEI844CEKI
","caus_thomas_fire_v2","3PXX5PX6LXZ4IZA5CSDZSZYSTKLABB","4","0","0","0","0","0",,"5779","2017-09-28 17:25:29","20471"
"A1YXQDZYCKILTT","caus_thomas_fire_v2","340UGXU9DY236MM9NELQTC4T3FTUVD","5","0","0","0","0","1",,"24483","2017-09-28 17:26:27","20472"
"A18B8EAII8NXJ0","caus_thomas_fire_v2","3PH3VY7DJLYX7AGOJBPUW62MC68WZC","7","0","0","1","1","1",,"610279","2017-09-28 17:26:41","20473"
"A3J84UA7THFJGI","caus_thomas_fire_v2","3CP1TO84PT2DOGYSY3T7JVF270752Y","7","0","0","0","1","1",,"35489","2017-09-28 17:27:03","20474"
"AD368A1RHHRC3","caus_thomas_fire_v2","3IKZ72A5B4H1FZGAQY40XV9D7PCNFQ","8","0","0","1","1","0",,"37670","2017-09-28 17:28:20","20475"
" 
Copied
A2HVJ3DDE6JJ8Z","caus_thomas_fire_v2","33FOTY3KEMMRYGPBU9G1SIB77BG1CM","8","0","0","1","0","1",,"22070","2017-09-28 17:29:31","20476"
"A2BQ9UA0LIKZQ3","caus_thomas_fire_v2","3GNA64GUZE5UGZ0D0EJ8FDD5N6M5QD","5","0","0","0","1","1",,"16882","2017-09-28 17:29:40","20477"
"AI4AO0O0WIJF7","caus_thomas_fire_v2","3UJ1CZ6IZHQ6TFFQSI8DADS65U75S2","6","0","0","0","1","0",,"26301","2017-09-28 17:29:49","20478"
"A74FLL2AIG261","caus_thomas_fire_v2","32ZKVD547FO4YEBK3DYP5RKMNAU3B9","8","0","0","0","1","1",,"38041","2017-09-28 17:30:05","20479"
"AX7A1BSBGABGA","caus_thomas_fire_v2","3GA6AFUKOOPEPRE6358LR2NKINZ3HP","8","0","0","1","1","0",,"26380","2017-09-28 17:30:20","20480"
"A1A3TGZ7DKJWRW","caus_thomas_fire_v2","33FOTY3KEMMRYGPBU9G1SIB77BD1CJ","7","0","0","0","1","0",,"24865","2017-09-28 17:30:34","20481"
"A31KV6ETEFLOEM","caus_thomas_fire_v2","33CID57104UGBNXWUQNJJUGRZ483LW","6","0","0","0","0","0",,"59520","2017-09-28 17:30:49","20482"
"A1KQWBK5WHCNYQ","caus_thomas_fire_v2","3NG53N1RLVKS35I0YZBMRSXMK0Y8PO","6","0","0","0","0","0",,"52252","2017-09-28 17:31:15","20483"
"A3K7ZBT7FEJW33","caus_thomas_fire_v2","3IOEN3P9S7K2IZGAKI3Y6IJXBP561Z","7","0","0","0","1","0",,"40020","2017-09-28 17:31:36","20484"
"A1489QNXV5IM6O","caus_thomas_fire_v2","3QECW5O0KH278FS5HID3KIOS7DI5TO","5","0","0","1","1","1",,"21590","2017-09-28 17:31:39","20485"
"A3J85WP15JFYW0","caus_thomas_fire_v2","35GCEFQ6I5P0GCE09RESR9RPEDDZ38","4","0","0","1","0","0",,"30318","2017-09-28 17:32:15","20486"
"A39UA9CXJ5QU48","caus_thomas_fire_v2","3HQUKB7LNFFTJZL5IQXNVWOU1SHHHA","5","0","0","0","0","0",,"25807","2017-09-28 17:32:22","20487"
"A1YTB9G04PC71S","caus_thomas_fire_v2","3YZ8UPK3VTN77DG9WXQL3KG4I8ECUX","3","0","0","1","0","0",,"35952","2017-09-28 17:32:34","20488"
"A38KA8KXRLEM7M","caus_thomas_fire_v2","3WT783CTPBISBE73W69QYUOGTN7CBG","8","0","0","1","0","0",,"39514","2017-09-28 17:32:39","20489"
"A38AF7RJM28PGX","caus_thomas_fire_v2","3RSDURM96AN3LKKS2PT5WTMKZ81EYP","6","0","0","0","1","0",,"107339","2017-09-28 17:32:45","20490"
"AP43EYS9D1Z9E","caus_thomas_fire_v2","352YTHGROVEZ7NXA3JD417FQWNV4HB","8","0","0","0","1","1",,"42465","2017-09-28 17:32:48","20491"
"A1XF0AAS5PYRGN","caus_thomas_fire_v2","32RIADZISS5OXWBQEDP35LMS5YC4SW","8","0","0","0","0","0",,"42845","2017-09-28 17:32:56","20492"
"A87D3K9YVKTQ7","caus_thomas_fire_v2","37M28K1J0QEA0I8H0KQGQNH51PSAJU","5","0","0","1","1","1",,"42049","2017-09-28 17:33:12","20493"
"A3QJJR5Y3XE92N","caus_thomas_fire_v2","3M81GAB8A0KW5FHM1OALIZDXX25QBW","7","0","0","1","0","1",,"43439","2017-09-28 17:33:24","20494"
"A1AOIXZC3NIZO","caus_thomas_fire_v2","3WR9XG3T63C2EYRYQARSAUQWIKZ74C","4","0","0","0","1","1",,"57704","2017-09-28 17:33:34","20495"
"A32KG2UG1KJ6ZB","caus_thomas_fire_v2","30X31N5D63R3ZLR7NEZUIO8SX88SAV","7","0","0","1","1","0",,"26934","2017-09-28 17:34:31","20496"
"A22DP0ST9DWG9O","caus_thomas_fire_v2","3VZLGYJEYLBCWALETGLGYPGTL8HZXB","5","0","0","0","0","0",,"40567","2017-09-28 17:34:51","20497"
"ARFBVL8NAU6Z","caus_thomas_fire_v2","31IBVUNM9S0EN4PJSPQR7C3QTSFFV0","8","0","0","0","1","1",,"57161","2017-09-28 17:35:11","20498"
"A207TJIPWDJAQZ
","caus_thomas_fire_v2","3L0KT67Y8EH4V3PA3KDALAQZ0ZBSY5","4","0","0","0","0","0",,"32703","2017-09-28 17:35:19","20499"
"A2BGRGVU9HG0C6","caus_thomas_fire_v2","39K0FND3AHG01QE23H386F9M5JQAM1","8","0","0","1","0","1",,"53450","2017-09-28 17:35:37","20500"
"AB0VIFDL1R6UM","caus_thomas_fire_v2","3X87C8JFV6CVM1YOCAWG8ONX1QUQS0","6","0","0","0","1","0",,"63988","2017-09-28 17:36:26","20501"
"A2TDK0LD62WZ8Y","caus_thomas_fire_v2","3Y5140Z9DXHLSBUD7LND4HR0NW4PIE","8","0","0","1","1","0",,"35159","2017-09-28 17:37:13","20502"
"AH01R0AMWSBNQ
","caus_thomas_fire_v2","33UKMF9319L9TH3VIEV1NYU6NG7TT6","6","0","0","1","1","0",,"42716","2017-09-28 17:37:38","20503"
"A3BJTC39BU7R4V","caus_thomas_fire_v2","34PGFRQONOC77VBK1PM88CEWT8YJWH","7","0","0","1","1","0",,"37858","2017-09-28 17:38:07","20504"
"ABAXK1YPX1J71","caus_thomas_fire_v2","3K772S5NP8CHZPU3SPPHATRH9CQEHS","0","0","0","1","0","0",,"90580","2017-09-28 17:40:15","20505"
"A10GJ2FOR16B2I","caus_thomas_fire_v2","39K0FND3AHG01QE23H386F9M5JRMAE","8","0","0","0","1","0",,"12849","2017-09-28 17:40:18","20506"
"A3MPRLOQP8D3DL","caus_thomas_fire_v2","3A1COHJ8NJW0QOKCFM3HIJVVY9RH8V","8","0","0","0","0","0",,"35489","2017-09-28 17:40:48","20507"
"ARHM06ZVMD66V","caus_thomas_fire_v2","3K4J6M3CXEU09GIGSE5DTAPP9XFAGU","8","0","0","0","0","1",,"38479","2017-09-28 17:40:57","20508"
"A3UXLYTQ0G27JB","caus_thomas_fire_v2","30LSNF239UWP04T75NC184J7CMF2I7","8","0","0","1","0","0",,"54802","2017-09-28 17:41:18","20509"
"AFMH601P0QVUK","caus_thomas_fire_v2","3IGI0VL647LVLCT3P1NQKPIRZQ4ONE","8","0","0","1","0","1",,"145254","2017-09-28 17:42:04","20510"
"A2WYQJ4NPRM45U","caus_thomas_fire_v2","3QXNC7EIPIWPTTXQM62ACNRPWY9093","7","0","0","1","1","0",,"7396","2017-09-28 17:42:20","20511"
"A1ANSFI5L7SUU","caus_thomas_fire_v2","3GS6S824SQY3QL25GNE01JVD2S4NWQ","4","0","0","1","1","0",,"2703","2017-09-28 17:42:53","20512"
"AKTL2XA991RT7","caus_thomas_fire_v2","3FTOP5WARFPEZ5AZ8ITN1H5SS3L0JY","8","0","0","0","1","1",,"39860","2017-09-28 17:43:34","20513"
"A171S8E9IFSHH2","caus_thomas_fire_v2","3LQ8PUHQFLTTFUWPO8F8V8P915XHI4","6","0","0","0","1","1",,"14480","2017-09-28 17:44:11","20514"
"A1G746AO9F06KW","caus_thomas_fire_v2","3XC1O3LBOSNLA4VQ95TA17KPT3MLTW","3","0","0","1","1","1",,"37425","2017-09-28 17:46:08","20515"
"ASNAVTTAW3MY","caus_thomas_fire_v2","3OLQQLKKNSQDQVPTGPS2M67WM4VJE3","4","0","0","0","1","1",,"22456","2017-09-28 17:47:00","20516"
"A2STS26LVIO2H3","caus_thomas_fire_v2","3WR9XG3T63C2EYRYQARSAUQWIK174E","2","0","0","1","0","0",,"44357","2017-09-28 17:47:36","20517"
"A27CEJDHPPL9WF
","caus_thomas_fire_v2","3WAKVUDHUWH1VWLD5GIANYOQHXOU7N","2","0","0","1","1","0",,"63187","2017-09-28 17:47:50","20518"
"A3pqugiqqbpr98","caus_thomas_fire_v2","3LOZAJ85YDEMQZI249C2BE6M0ZJX22","7","0","0","1","1","0",,"5609","2017-09-28 17:48:43","20519"
"A2ZBKJCZPT4Z0V","caus_thomas_fire_v2","34Z02EIMISE8D864KC7R3NS1Q5D0T4","7","0","0","1","0","0",,"36608","2017-09-28 17:51:34","20520"
"A2KQLLEA8WMRBL","caus_thomas_fire_v2","3WI0P0II61TPWDU6SZQRIFB2W9ORDA","6","0","0","0","1","1",,"49579","2017-09-28 17:52:42","20521"
"AK3H5QRAROFGP","caus_thomas_fire_v2","3R2PKQ87NW9F78X0F5VLNDX5IRVIMD","6","0","0","1","1","1",,"28079","2017-09-28 17:53:14","20522"
"ACJTRTT2SO4E0","caus_thomas_fire_v2","3JW0YLFXRTHTDFBJ8O5NX284V44WWM","7","0","0","1","1","1",,"42897","2017-09-28 17:53:16","20523"
"A3DFMWYTKJ57L","caus_thomas_fire_v2","33LKR6A5KEL8KXRMGVBRHSBBVXJ1T8","8","0","0","0","1","1",,"21802","2017-09-28 17:53:25","20524"
"ADUZ6RO42OM0T","caus_thomas_fire_v2","3TVSS0C0E111LY7PDJ0CAI15RARTWY","6","0","0","0","1","1",,"33732","2017-09-28 17:53:36","20525"
"A36N7DIMV383CS","caus_thomas_fire_v2","3SITXWYCNVAGECIYN25DC79QU5YBXK","0","0","0","0","0","1",,"28045","2017-09-28 17:54:21","20526"
"A239EUWY6SNDEZ","caus_thomas_fire_v2","33CID57104UGBNXWUQNJJUGRZ453LT","6","0","0","1","1","1",,"20032","2017-09-28 17:54:50","20527"
"ARAW2BY7JQ2JH","caus_thomas_fire_v2","3O6CYIULED2GLBMEDOQMFEN7AOWWUQ","7","0","0","0","0","0",,"42976","2017-09-28 17:55:19","20528"
"A2MG1LLIKMGAMX","caus_thomas_fire_v2","3TOK3KHVJTJ6IR1G9U61OSW1ZBZO73","6","0","0","0","1","0",,"30173","2017-09-28 17:56:13","20529"
"A3MRGTMHCJL67Q","caus_thomas_fire_v2","3BEFOD78W6ULZ1YLUGTHTCNMD9X4MN","7","0","0","1","1","0",,"68361","2017-09-28 17:56:19","20530"
"A1P7XAQO90H27U","caus_thomas_fire_v2","3R08VXYT7CWEN0AI0GXB5M9N2D17W1","3","0","0","0","0","0",,"38481","2017-09-28 17:57:01","20531"
"AJ1VMW9NT7287","caus_thomas_fire_v2","36W0OB37HWFFAKLZOC3UV3SZXI1HZ3","5","0","0","0","1","0",,"36513","2017-09-28 17:57:28","20532"
"AMNRYECHXZY34","caus_thomas_fire_v2","3H8DHMCCW9C399HB2FHUH3PO1HTDK2","7","0","0","1","0","0",,"33955","2017-09-28 17:57:55","20533"
"A3NQ8Y8MGI2DQ9

","caus_thomas_fire_v2","35USIKEBNRH5W6NZP51W3PW0EQDN6R","6","0","0","0","1","0",,"50990","2017-09-28 17:59:06","20534"
"A3UV55HC87DO9C","caus_thomas_fire_v2","3U84XHCDICELY8X495JB1EJVSDAZ4U","6","0","0","1","0","1",,"26829","2017-09-28 17:59:59","20535"
"AJPLNQSDWH2UN","caus_thomas_fire_v2","3KV0LJBBH2MS070J5SPU15YW5NHMRO","4","0","0","1","0","1",,"93771","2017-09-28 18:00:10","20536"
"AYM6LP0WWGMB9","caus_thomas_fire_v2","30ZX6P7VF8WLVFDDN5X1K5Y7P152JK","0","0","0","1","1","1",,"32651","2017-09-28 18:03:07","20537"
"A1C7FH4P7EKUBE","caus_thomas_fire_v2","3LRLIPTPEQA5B2EZI5QSR2HIGEZAK0","6","0","0","0","1","0",,"40460","2017-09-28 18:04:37","20538"
"A3RUKNCDJBNV6Y","caus_thomas_fire_v2","3H7XDTSHKCSXGTLJTJ15BZMG1GLGWE","7","0","0","0","0","1",,"38135","2017-09-28 18:04:40","20539"
"AXPOBOA6RMCV0","caus_thomas_fire_v2","3I7DHKZYGN1XPAA4MY8E3E9RG4GF5W","6","0","0","0","0","0",,"13966","2017-09-28 18:05:13","20540"
"A2CK0OXMPOR9LE","caus_thomas_fire_v2","36NEMU28XFEX83H54MZ0O46DX2RWMW","7","0","0","1","0","1",,"18004","2017-09-28 18:05:21","20541"
"AX8RDFKYAO9BX","caus_thomas_fire_v2","3HUTX6F6VUOZWQ4A3IP6S1FTOVHO2R","8","0","0","1","0","1",,"24092","2017-09-28 18:08:06","20542"
"A1E800LCLMGXF3","caus_thomas_fire_v2","38BQUHLA9W1P3U83D08Q7ATRU0YOMI","4","0","0","0","0","0",,"16577","2017-09-28 18:09:11","20543"
"A20O44S26VN11P","caus_thomas_fire_v2","3R8YZBNQ9HJ933EWO7Y5DXR1ECK7QX","4","0","0","1","0","0",,"53446","2017-09-28 18:09:20","20544"
"A18J8M1SGIW7XL","caus_thomas_fire_v2","3ND9UOO81K3D2LZK4AYLORROXX7LWP","8","0","0","1","0","1",,"31697","2017-09-28 18:10:41","20545"
"A39A7S4KY5TLW7","caus_thomas_fire_v2","3KYQYYSHYV8MZ02Q079NOK6XLM6OD0","7","0","0","1","1","1",,"13774","2017-09-28 18:10:45","20546"
"A25R2OI9L2Q1OW","caus_thomas_fire_v2","3NQL1CS15R9KNV6EXFIFWXA6Z32YVD","4","0","0","0","0","1",,"19865","2017-09-28 18:10:52","20547"
"A23CK30QETDTLL","caus_thomas_fire_v2","3HPZF4IVNMUOOM0E6YNA65MHEWTCYZ","8","0","0","0","0","1",,"77361","2017-09-28 18:15:23","20548"
"A2IJ7FMI47IJB7","caus_thomas_fire_v2","3EA3QWIZ4IWJK3NKO2WX9RSXCZWITJ","6","0","0","1","0","1",,"38000","2017-09-28 18:15:33","20549"
"A1ZC7QQU827F1M","caus_thomas_fire_v2","33LK57MYLT640TZFZ6FTZHZ16TKSZ1","8","0","0","1","0","0",,"29010","2017-09-28 18:16:14","20550"
"A2FOOQ0376XKCO","caus_thomas_fire_v2","3WYP994K17SZ85RDW7A7K5U7IAK6Y3","4","0","0","1","0","1",,"28169","2017-09-28 18:18:49","20551"
"A1LDF2TSP9ORSB","caus_thomas_fire_v2","39U1BHVTDLS4U0513ZPA5LQ8TH0T3V","6","0","0","1","0","1",,"26522","2017-09-28 18:23:38","20552"
"A19KJKSZZAIDO","caus_thomas_fire_v2","3ND9UOO81K3D2LZK4AYLORROXX9LWR","4","0","0","0","1","1",,"15701","2017-09-28 18:24:26","20553"
"A3OHSBXTX7UMG0","caus_thomas_fire_v2","3GFK2QRXX9IZ0WWZCNIE72VRB7A5WO","4","0","0","1","1","1",,"6586","2017-09-28 18:27:36","20554"
"AZV8213BMVMOT","caus_thomas_fire_v2","3LKC68YZ3A4L862HH2EDG8VIS2EWOJ","4","0","0","0","1","1",,"200777","2017-09-28 18:29:21","20555"
"A384FUI8JZVGZM","caus_thomas_fire_v2","34X6J5FLPTZ2NYFYPGN2GNWA57OJQK","5","0","0","0","0","0",,"26346","2017-09-28 18:30:16","20556"
"A2VOADROWMC2ZM","caus_thomas_fire_v2","3ZDAD0O1T1EGAYCFNOWYC1FC0C2XT0","7","0","0","1","0","0",,"83590","2017-09-28 18:30:32","20557"
"A3BBAD8UB2C9HO","caus_thomas_fire_v2","3TMFV4NEP8FINEF1ALPHJM5IDXBW8H","7","0","0","1","0","1",,"29439","2017-09-28 18:31:12","20558"
"A3GAQNTZ1V1VO","caus_thomas_fire_v2","32VNZTT0A75CWHBDZOPYFBHWJW24RH","8","0","0","0","1","0",,"21463","2017-09-28 18:36:11","20559"
"A2A0DKZ4Y9I6OV","caus_thomas_fire_v2","3SUWZRL0MYE120AMW6YDD22R0YFE6W","7","0","0","0","0","1",,"27962","2017-09-28 18:36:30","20560"
"A1QCXSZJ3ZLCNY","caus_thomas_fire_v2","3NKQQ8O39Y6HC5MNWTLWNQYM38YUDN","5","0","0","0","0","0",,"45309","2017-09-28 18:37:15","20561"
"A154A1OVHFBDER","caus_thomas_fire_v2","3WJEQKOXA83351SDAVKAMNLJ784A12","4","0","0","1","1","1",,"23936","2017-09-28 18:40:51","20562"
"A563JDEQMNQTI","caus_thomas_fire_v2","3IAS3U3I0FHFDWF1ZDKKMHFUHW22B5","5","0","0","1","1","1",,"25921","2017-09-28 18:42:59","20563"
"A1APVA18JOY1LT","caus_thomas_fire_v2","3X3OR7WPZZ12CK3267IFABO2FQ9L8F","6","0","0","1","1","0",,"25930","2017-09-28 18:44:11","20564"
"A3DA9VCFVY24TR","caus_thomas_fire_v2","3M81GAB8A0KW5FHM1OALIZDXX2HBQT","6","0","0","1","1","0",,"35876","2017-09-28 18:44:12","20565"
"A35P8YSNTQ7OTP","caus_thomas_fire_v2","31Z0PCVWUKGMVJ6O5BS0I22OYJPT73","0","0","0","0","1","0",,"31199","2017-09-28 18:44:58","20566"
"A1IK4EIAV14BQK
A1IK4EIAV14BQK","caus_thomas_fire_v2","3JMSRU9HQIVMHQPNXE6LPUIQHR9VE7","6","0","0","1","1","1",,"35933","2017-09-28 18:45:39","20567"
"A23932BPI1NFXV","caus_thomas_fire_v2","3018Q3ZVOIRRY6RU8PZPSE3WB6YRAF","8","0","0","0","1","1",,"47370","2017-09-28 18:47:54","20568"
"AM6BSJ7FPFWCR","caus_thomas_fire_v2","3SNLUL3WO4O0AHAF9AJK636RCH1UL4","7","0","0","0","1","0",,"2981","2017-09-28 18:48:44","20569"
"A31L5H1AOWJLV1","caus_thomas_fire_v2","36W0OB37HWFFAKLZOC3UV3SZXI8HZA","7","0","0","0","0","1",,"38175","2017-09-28 18:51:31","20570"
"AVV5TUEEBVDDW","caus_thomas_fire_v2","3J88R45B2GZII6J867NE7REFB9KPXQ","8","0","0","1","0","1",,"38779","2017-09-28 18:53:26","20571"
"A39ZMNLNF8M7H6","caus_thomas_fire_v2","3QECW5O0KH278FS5HID3KIOS7DVT5P","6","0","0","0","1","1",,"36024","2017-09-28 18:54:18","20572"
"A3NDGIP7TT9B0Q","caus_thomas_fire_v2","33OOO72IVHMS701KWS0BYOU2ZUHTCX","4","0","0","1","1","1",,"47928","2017-09-28 18:56:17","20573"
"AZ223PTWQ4AYF","caus_thomas_fire_v2","337RC3OW0530NWZFE0TP2P8AQOALVK","8","0","0","1","0","0",,"21733","2017-09-28 18:57:13","20574"
"AQXAQCJFY2ZA7","caus_thomas_fire_v2","3SITXWYCNVAGECIYN25DC79QU55XBD","7","0","0","0","1","1",,"14232","2017-09-28 19:02:08","20575"
"AV7UX8QQXABSK","caus_thomas_fire_v2","39JEC7537U27KS591N0QZ6INWFYCVX","5","0","0","0","1","1",,"20223","2017-09-28 19:02:19","20576"
"A1M1TSMJB12177","caus_thomas_fire_v2","3HYA4D452RK5QDRH4F6G576FWUW2FP","4","0","0","1","0","0",,"17164","2017-09-28 19:02:25","20577"
"A3105BXK85QUS7","caus_thomas_fire_v2","3BV8HQ2ZZW2YCNTAG1WRHJC0FJM6AY","7","0","0","0","0","1",,"42436","2017-09-28 19:02:50","20578"
"A1F4YJSYSEN0D","caus_thomas_fire_v2","36PW28KO4ZX2P2MPMJFPT74DWHAAEN","7","0","0","1","0","0",,"80815","2017-09-28 19:03:32","20579"
"A1LTV9MGGQCIT3","caus_thomas_fire_v2","3RRCEFRB7MDPGAUO3R38FWCS1A1B4D","8","0","0","0","1","1",,"44146","2017-09-28 19:03:56","20580"
"A39V6GZEHSLZLF","caus_thomas_fire_v2","32Z9ZLUT1LL3BG7SM3SDF5LVDE5OHF","8","0","0","0","1","0",,"81314","2017-09-28 19:03:57","20581"
"A3H0427J0TSPWK","caus_thomas_fire_v2","34J10VATJFZ6SNVS7Y224MHASS4QIK","6","0","0","0","0","0",,"21338","2017-09-28 19:07:07","20582"
"AS7ZK30LXDC46","caus_thomas_fire_v2","3L0KT67Y8EH4V3PA3KDALAQZ0ZNSYH","1","0","0","1","1","1",,"47702","2017-09-28 19:07:33","20583"
"A2CEUCPDECS6U3","caus_thomas_fire_v2","3W8CV64QJ2004T3MKE9VIFQ6IFI9HL","8","0","0","0","1","0",,"16298","2017-09-28 19:07:34","20584"
"A134MJZL7H493A","caus_thomas_fire_v2","3SNLUL3WO4O0AHAF9AJK636RCH1LUV","8","0","0","1","0","1",,"13357","2017-09-28 19:07:57","20585"
"A3K1ZHQQOD2RSD","caus_thomas_fire_v2","39GHHAVOMFSVYTS0RJGPDKV59FC4JT","6","0","0","1","0","0",,"38892","2017-09-28 19:09:34","20586"
"A1BLAWP38JPWDD","caus_thomas_fire_v2","3X3OR7WPZZ12CK3267IFABO2FQD8L6","8","0","0","0","1","0",,"28733","2017-09-28 19:10:09","20587"
"A138VVL3487AT3","caus_thomas_fire_v2","3OLQQLKKNSQDQVPTGPS2M67WM46JEE","8","0","0","0","1","0",,"5353","2017-09-28 19:10:33","20588"
"A1V0RDWOXP8N7","caus_thomas_fire_v2","3N1FSUEFL51IV7S8HNUEAM0S4VDD4M","8","0","0","0","1","0",,"62145","2017-09-28 19:11:31","20589"
"A249CS9N1G9JCM
","caus_thomas_fire_v2","3OCHAWUVGOLH7FMSTFI6BASGHZIXK1","7","0","0","0","1","0",,"41609","2017-09-28 19:15:01","20590"
"A328WBNP9A8KBO","caus_thomas_fire_v2","3ZV9H2YQQD8WMH9VY4ULS5X7XBR3W4","5","0","0","0","0","1",,"28608","2017-09-28 19:15:12","20591"
"AL2DWB1NI4QQW","caus_thomas_fire_v2","3570Y55XZPK15YGJ8KJTWW7WCOVGYN","8","0","0","1","0","0",,"57818","2017-09-28 19:15:48","20592"
"A36J7S3EKMQPPN","caus_thomas_fire_v2","3PMBY0YE2749NLS6YMVU7OTQ5NL9CK","6","0","0","0","1","1",,"32288","2017-09-28 19:18:21","20593"
"A2Q3I5XE5N4TER","caus_thomas_fire_v2","3KB8R4ZV1E85SQN8YS59OL9VRFGBG6","6","0","0","1","0","1",,"46050","2017-09-28 19:18:59","20594"
"A8TASBST8Y826","caus_thomas_fire_v2","39GXDJN2OTF58PFWKBKLXKM46OJV8G","8","0","0","0","1","0",,"50832","2017-09-28 19:19:26","20595"
"A2XSAZ0Y6HPDQA","caus_thomas_fire_v2","3018Q3ZVOIRRY6RU8PZPSE3WB68AR8","8","0","0","1","0","0",,"36996","2017-09-28 19:20:53","20596"
"A25FZJWHOOWY3","caus_thomas_fire_v2","35L9RVQFCOJYOLRPIP4MEBDKV0UHUM","7","0","0","1","1","0",,"22178","2017-09-28 19:21:50","20597"
"A2JUELKWP5O5FB","caus_thomas_fire_v2","3EICBYG644XYTX5FKYM7WI7T1SZCJK","5","0","0","0","0","1",,"54567","2017-09-28 19:21:57","20598"
"A3T823TYKTZEVO","caus_thomas_fire_v2","3AMYWKA6YBNNERNBQK19IEW540Z6O6","8","0","0","0","1","0",,"27279","2017-09-28 19:22:12","20599"
"AMQ2M1VT5EUW4","caus_thomas_fire_v2","3O7L7BFSHEQHVK5NY772A5SW9PNIE7","7","0","0","1","1","1",,"45808","2017-09-28 19:22:27","20600"
"A2MSVKXC1F3WIU","caus_thomas_fire_v2","37U1UTWH9VNDFIYFBRFBWNX1LI58RZ","5","0","0","0","0","0",,"21979","2017-09-28 19:23:04","20601"
"A3BH9LOU9KV6T0","caus_thomas_fire_v2","3P1L2B7AD1Q5XCQIDO7B7XE2UVILON","7","0","0","1","0","1",,"22633","2017-09-28 19:23:38","20602"
"A28FW73RBVGYZ9","caus_thomas_fire_v2","33OOO72IVHMS701KWS0BYOU2ZUGTCW","6","0","0","0","0","1",,"27555","2017-09-28 19:24:02","20603"
"A221JJK7P6K22W","caus_thomas_fire_v2","33SA9F9TRXVZWFPSNOBHBW14O0IEW7","3","0","0","0","0","1",,"12609","2017-09-28 19:24:17","20604"
"ABE5WRCYW73MG","caus_thomas_fire_v2","3MH9DQ757WDKOPWEYJM4TB1JG0RGUW","7","0","0","0","0","1",,"25755","2017-09-28 19:24:32","20605"
"A3CPZZNZDLFL6Z","caus_thomas_fire_v2","3MRNMEIQW57ETFZTNFTVW323QHCDLJ","2","0","0","1","1","0",,"3837","2017-09-28 19:25:11","20606"
"A3VDFWL4MI3KPA","caus_thomas_fire_v2","3VE8AYVF8MYGCST6KWFHFYJIIUUF8B","5","0","0","0","0","1",,"4249","2017-09-28 19:26:13","20607"
"A2S00V7RUU121E","caus_thomas_fire_v2","39PAAFCODM1O697KN9VGOGIRK12VT3","8","0","0","1","0","1",,"18191","2017-09-28 19:27:01","20608"
"A1ODGBU73JE8S","caus_thomas_fire_v2","3CTOC39K37RSHGAJTHEWGWFF0HYJ7O","4","0","0","0","1","1",,"11602","2017-09-28 19:27:24","20609"
" A35ZVO654GOBP5","caus_thomas_fire_v2","39ZSFO5CA8XUFRMF6P77QOTZ8S0JUV","8","0","0","0","0","1",,"58106","2017-09-28 19:27:57","20610"
"A3K2VSBTT3WUTI","caus_thomas_fire_v2","3FE7TXL1LIO2H2HQIVHAH6AT3WI2QW","6","0","0","1","0","0",,"56991","2017-09-28 19:28:16","20611"
"A3I3VC7VCQHOT8","caus_thomas_fire_v2","3RRCEFRB7MDPGAUO3R38FWCS1AEB4Q","4","0","0","1","1","1",,"44598","2017-09-28 19:28:33","20612"
"A37QFZ8I1TGH2C","caus_thomas_fire_v2","3Z2R0DQ0JHFDKZRL94MANPLFKTV2EL","7","0","0","0","1","0",,"59052","2017-09-28 19:28:39","20613"
"AWPBDDOHTUNOF
AWPBDDOHTUNOF
F
","caus_thomas_fire_v2","3MAOD8E57QBIFL7VQSAM329KBUVNX4","5","0","0","0","0","1",,"40285","2017-09-28 19:28:40","20614"
"AVJUIF9QHQRY8","caus_thomas_fire_v2","37ZHEEHM6WNHW28UQWM90PYQ4KS73G","3","0","0","0","0","1",,"48424","2017-09-28 19:29:54","20615"
"AVU1N78F92K93","caus_thomas_fire_v2","3FDJT1UU74985W2IN9ZBJR1WO04K5A","6","0","0","0","0","1",,"14679","2017-09-28 19:32:39","20616"
"A1AS9WOK2AKSJ3","caus_thomas_fire_v2","3H0W84IWBK3UOJ86OU1BOXTNWLFRET","7","0","0","0","1","1",,"56983","2017-09-28 19:35:15","20617"
"A1YUYF6OQFW3N","caus_thomas_fire_v2","3OS46CRSLF0I4BW8RWNND6QD0U5V68","7","0","0","1","0","0",,"26053","2017-09-28 19:35:37","20618"
"A14QHWM66FV1K6","caus_thomas_fire_v2","3ND9UOO81K3D2LZK4AYLORROXXVLWD","5","0","0","0","1","0",,"82498","2017-09-28 19:35:56","20619"
"A369K7I5SXBPNC","caus_thomas_fire_v2","33L7PJKHCGZQVXB7FGK6W2YJ94FT8C","7","0","0","0","1","0",,"34747","2017-09-28 19:36:13","20620"
"A7FXUMAFLRJL2","caus_thomas_fire_v2","30BXRYBRP4YBGPGUDPJNWZYHGHNHW5","8","0","0","0","0","0",,"36587","2017-09-28 19:37:11","20621"
"A8QJ1G6724G51
","caus_thomas_fire_v2","3XCC1ODXDLCJLMYBXLWBIEI1FP5RQ9","0","0","0","1","0","1",,"56759","2017-09-28 19:37:44","20622"
"A32GUTF1UY5HQP","caus_thomas_fire_v2","3HRMW88U16R40DGKBF6FH9X9WY9M0J","6","0","0","0","0","1",,"29784","2017-09-28 19:37:52","20623"
"A1CC8JF57E7OIJ","caus_thomas_fire_v2","308Q0PEVB8E00OE6QWRGIRRLITOI9G","7","0","0","1","0","0",,"102788","2017-09-28 19:43:30","20624"
"A1HCV6GDGGWNUR","caus_thomas_fire_v2","3PEIJLRY6TU82FG9IT19ZLMB47EWXL","6","0","0","0","1","1",,"36621","2017-09-28 19:43:56","20625"
"A2SY2N44N1RWVA","caus_thomas_fire_v2","3JPSL1DZ5S06J8Z2FII8JUYMAAWNAC","7","0","0","0","0","0",,"42855","2017-09-28 19:46:38","20626"
"ADZLNI36MSOL","caus_thomas_fire_v2","3TR2532VIPV9DGWEA794AIFJ57AJ6N","6","0","0","1","1","0",,"34959","2017-09-28 19:47:03","20627"
"AE646CIHBMUMX","caus_thomas_fire_v2","3IKZ72A5B4H1FZGAQY40XV9D7QGNFW","7","0","0","1","1","1",,"74398","2017-09-28 19:47:19","20628"
"A1TZ2BG01V4DJY","caus_thomas_fire_v2","3LKC68YZ3A4L862HH2EDG8VIS3EOWD","2","0","0","0","0","1",,"32292","2017-09-28 19:48:05","20629"
"A1F3P6N7BO9HBN","caus_thomas_fire_v2","3OVHNO1VE62YY4GX2GK44ID15RBDZV","4","0","0","1","0","0",,"24679","2017-09-28 19:48:19","20630"
" A18RE2B07K9M88
 A18RE2B07K9M88
 A18RE2B07K9M88
 A18RE2B07K9M88
 A18RE2B07K9M88
A18RE2B07K9M88","caus_thomas_fire_v2","3VNXK88KKCJ5MUY6P3QZXGHFQVN9V7","8","0","0","0","1","0",,"129403","2017-09-28 19:49:19","20631"
"AFNGM40QC84Z1","caus_thomas_fire_v2","35GMH2SV3EIRR6GQW2K7U2OILZCEOQ","7","0","0","1","0","1",,"51717","2017-09-28 19:51:04","20632"
"A1Q7XRRWOUR4SQ","caus_thomas_fire_v2","3LWJHTCVCCNMIWT26QWH1P4IC19FQH","8","0","0","0","1","1",,"39672","2017-09-28 19:51:11","20633"
"AOPRFGJRGNK00","caus_thomas_fire_v2","378XPAWRUCEE57OBI25GEM25OBFIA4","8","0","0","0","1","1",,"42165","2017-09-28 19:51:26","20634"
"A1ZQAXNPFLU0V1","caus_thomas_fire_v2","3RU7GD8VPOUAMPX9CXHR8JXNWVKSPP","8","0","0","1","1","0",,"69245","2017-09-28 19:54:27","20635"
"AVEBD8M8KXXKU","caus_thomas_fire_v2","3BQU611VFPL7PNL3M2L35YSIZ3F992","8","0","0","1","1","1",,"28875","2017-09-28 19:55:28","20636"
"ANKMMQ74Z77XY","caus_thomas_fire_v2","3M68NM076H8QB4FRICIDC91AFOIR61","4","0","0","0","1","1",,"61851","2017-09-28 20:02:04","20637"
"A1QX3W0I7WJK2F","caus_thomas_fire_v2","3Q5ZZ9ZEVOGOAV0HEK28TMS5T1P58T","8","0","0","0","0","0",,"19631","2017-09-28 20:06:07","20638"
"A1HXV7Q1SYGJEW","caus_thomas_fire_v2","3EO896NRAWWFFE7Q6KHXLS7XPF0TJN","7","0","0","1","0","0",,"28865","2017-09-28 20:06:39","20639"
"A323CXBZIJIG7O","caus_thomas_fire_v2","3TMSXRD2X610CEVGB0G24CIAZSN1WM","8","0","0","0","1","1",,"47967","2017-09-28 20:06:46","20640"
"AK6R0OUY19Q4K","caus_thomas_fire_v2","3IXQG4FA2TZQDG00KMZZW4N8N4YB9W","7","0","0","1","1","1",,"45546","2017-09-28 20:12:11","20641"
"A3B96BW9I8IZA2

A3B96BW9I8IZA2
","caus_thomas_fire_v2","3ZPBJO59KP2C7JG3WUEX4B9W92IHDZ","8","0","0","0","0","0",,"17831","2017-09-28 20:12:13","20642"
"A2YMOVE5PJLTH6","caus_thomas_fire_v2","3QAPZX2QN4EET9CR1XNV20JBQUT029","2","0","0","0","1","1",,"32814","2017-09-28 20:14:24","20643"
"A3P3J6QFE7K230
","caus_thomas_fire_v2","3TUI152ZZBOVSHZUZRHWCN0OBSEQ1H","0","0","0","0","0","1",,"45807","2017-09-28 20:16:32","20644"
"A21HDHQPENLF2X","caus_thomas_fire_v2","3KXIR214I4HVSXUSKYAXE39O76D42X","8","0","0","1","1","1",,"37564","2017-09-28 20:19:15","20645"
"A2B21SD1ZIJ8X2","caus_thomas_fire_v2","3TS1AR6UQQFCCEONARNB1YNN7C97F5","2","0","0","1","0","0",,"49966","2017-09-28 20:20:42","20646"
"A2HR7ZIX42FEPG","caus_thomas_fire_v2","34S6N1K2ZVKV5V4V9BCLNOH1IBVHLQ","8","0","0","0","1","0",,"19835","2017-09-28 20:24:32","20647"
"AB6GD4206T43F","caus_thomas_fire_v2","3Y54SXRO1LMOTUIKIJLBSUG86WJTU6","8","0","0","0","1","0",,"38509","2017-09-28 20:26:36","20648"
"A1H6J4S63FQVWF","caus_thomas_fire_v2","3MAOD8E57QBIFL7VQSAM329KBWEXN1","8","0","0","0","0","0",,"59646","2017-09-28 20:26:40","20649"
"A3BVTK7EAQ2J1Y","caus_thomas_fire_v2","30LSNF239UWP04T75NC184J7COK2IG","8","0","0","0","1","1",,"43606","2017-09-28 20:27:20","20650"
"A11ED29FYJKV2E","caus_thomas_fire_v2","3QFUFYSY9YGFTR648TP4YM3DGAO4FN","5","0","0","0","1","1",,"77583","2017-09-28 20:27:25","20651"
"A2BIUQU9NNKGW9","caus_thomas_fire_v2","3X4JMASXCMA8HMCNKQG63TMFK0H0BM","8","0","0","0","0","1",,"31540","2017-09-28 20:30:53","20652"
"A39E9936894TJR","caus_thomas_fire_v2","3OLF68YTN92UVGMLHUZVBPPD8K8AFS","5","0","0","0","1","0",,"107370","2017-09-28 20:32:18","20653"
"A13W2IW1GYC8YO","caus_thomas_fire_v2","3NQL1CS15R9KNV6EXFIFWXA6Z5DVYP","8","0","0","1","0","1",,"17725","2017-09-28 20:33:17","20654"
"A20NK7I5QIZ95V","caus_thomas_fire_v2","3SNVL38CI4TT4HBX2JMJXX76GJPKCL","8","0","0","0","0","0",,"45785","2017-09-28 20:35:11","20655"
"AZPXXTHW5SL8Y","caus_thomas_fire_v2","3SUWZRL0MYE120AMW6YDD22R00JE64","8","0","0","1","1","1",,"29192","2017-09-28 20:37:55","20656"
"A3IZ33ZKF224P8","caus_thomas_fire_v2","3X66WABAJWJ0PVJVJZQ362BJ3PWG3H","7","0","0","1","0","1",,"28368","2017-09-28 20:38:10","20657"
"A23PH5V8F86N3M
","caus_thomas_fire_v2","3G0WWMR1UVLY6O6J4EFU9UDRETWQN2","4","0","0","1","0","0",,"38644","2017-09-28 20:38:19","20658"
"A3O80DOQTSELGG","caus_thomas_fire_v2","3LS2AMNW5FRGO96V5TF7OJDW431QOH","8","0","0","0","0","0",,"25287","2017-09-28 20:38:54","20659"
"ADVCIFLB5A9B","caus_thomas_fire_v2","3634BBTX0OV91Y5JTIR8SNDWLSUIFL","8","0","0","1","0","1",,"36266","2017-09-28 20:39:55","20660"
"A1NHTBY5YB9JH7","caus_thomas_fire_v2","3PXX5PX6LXZ4IZA5CSDZSZYSTMYABS","6","0","0","0","0","0",,"42373","2017-09-28 20:41:27","20661"
"A18P9IBYJ4FFSX","caus_thomas_fire_v2","3J4Q2Z4UTY4OTIFXWF6H5DQI752QWV","8","0","0","1","1","0",,"56161","2017-09-28 20:43:30","20662"
"A3BO5LGNRE1HUW","caus_thomas_fire_v2","3H7Z272LX78NIC2JSOKQWXJS42DPLB","8","0","0","0","0","0",,"22385","2017-09-28 20:44:54","20663"
"A11X7IVSPGSPQY","caus_thomas_fire_v2","3XXU1SWE8MW3YC7VECGA8I292I30AY","6","0","0","1","0","1",,"29707","2017-09-28 20:45:50","20664"
"AMNFU3CPH5W0L
","caus_thomas_fire_v2","3BWI6RSP7GAK60ORFG35JG2NVB17EU","4","0","0","1","1","1",,"18061","2017-09-28 20:51:18","20665"
"A2P76QVLSGJR45","caus_thomas_fire_v2","3UNH76FOCS61X8C5JNHO91RT8EQMYS","6","0","0","0","0","0",,"21823","2017-09-29 12:37:51","20666"
"A3NV4F2M1OT5GN","caus_thomas_fire_v2","3STRJBFXOWSAQYD8O5H9M77A47DKTW","6","0","0","1","0","0",,"19618","2017-09-29 12:37:57","20667"
"A1BQCRF5Q76YFY","caus_thomas_fire_v2","3QIYRE09Y3IAPKM2JZPF8T5J6JRN1V","8","0","0","0","1","0",,"23555","2017-09-29 12:37:59","20668"
"A16G6PPH1INQL8","caus_thomas_fire_v2","39N5ACM9HEOSHA1A3RH0ROSX4AGP92","7","0","0","1","1","1",,"25460","2017-09-29 12:38:10","20669"
"A35BY30TC8WCL4","caus_thomas_fire_v2","3WRFBPLXRAP6ZN0H633YWMKG435N3N","7","0","0","1","0","1",,"21467","2017-09-29 12:38:28","20670"
"A2E3SM3T01ENIR","caus_thomas_fire_v2","39ZSFO5CA8XUFRMF6P77QOTZ8WKUJY","8","0","0","0","1","1",,"29279","2017-09-29 12:38:29","20671"
"A3SOJWB6AZWZV9
","caus_thomas_fire_v2","3U5NZHP4LR3LWGJT135S45QLNNOPHS","6","0","0","0","0","1",,"20840","2017-09-29 12:38:48","20672"
"A1W6NTSBP1FIL0","caus_thomas_fire_v2","3R9WASFE2ZHVWOUTTMFUSIGMH7IZFP","4","0","0","0","1","0",,"21415","2017-09-29 12:38:50","20673"
"A1LHSOH23WKNJI","caus_thomas_fire_v2","3RU7GD8VPOUAMPX9CXHR8JXNWY5PSD","8","0","0","0","0","0",,"12609","2017-09-29 12:38:52","20674"
"A3MY3OCYIZX0E6","caus_thomas_fire_v2","3FE2ERCCZX9VOX5G5G0IOENMZ92POG","7","0","0","0","1","0",,"32895","2017-09-29 12:39:02","20675"
"A1CGGZRO2JUQUG","caus_thomas_fire_v2","35USIKEBNRH5W6NZP51W3PW0EU7N6T","2","0","0","1","0","0",,"46738","2017-09-29 12:39:03","20676"
"A1DCKRRPA4AWVD","caus_thomas_fire_v2","3MH9DQ757WDKOPWEYJM4TB1JG43UGU","7","0","0","1","0","1",,"42024","2017-09-29 12:39:03","20677"
"A2JKYB8LFTCFGI","caus_thomas_fire_v2","32RIADZISS5OXWBQEDP35LMS529S4P","4","0","0","1","1","0",,"25496","2017-09-29 12:39:09","20678"
"A2IU5TX5S0FA1C","caus_thomas_fire_v2","3CPLWGV3MO0SEPPXNC48NZN24VFN94","7","0","0","1","1","0",,"36906","2017-09-29 12:39:16","20679"
"A3SQUS8GXNTCSU","caus_thomas_fire_v2","39DD6S19JPC3QAUXYBVOA0VM563ZE7","7","0","0","0","1","1",,"24137","2017-09-29 12:39:23","20680"
"A1ZZ7YO3YASNIP","caus_thomas_fire_v2","3I02618YA07Q12PD12CRNKFBHVQPUT","4","0","0","0","1","0",,"26808","2017-09-29 12:39:47","20681"
"A3J0PZ3P3J90DU","caus_thomas_fire_v2","36W0OB37HWFFAKLZOC3UV3SZXMVZHN","5","0","0","1","1","1",,"61879","2017-09-29 12:39:53","20682"
"A3SOJWB6AZWZV9
","caus_thomas_fire_v2","3U5NZHP4LR3LWGJT135S45QLNNOPHS","6","0","0","0","0","1",,"4853","2017-09-29 12:39:57","20683"
"A1JSOGTAE7BN2M","caus_thomas_fire_v2","3NPI0JQDAO6B1PAO1XMHIOT9YHJPT2","0","0","0","0","1","0",,"31525","2017-09-29 12:39:58","20684"
"A2YW35WSBU88O0","caus_thomas_fire_v2","3BGYGHDBBXLLPJF5GKR9LOCQNUF221","8","0","0","1","1","0",,"94970","2017-09-29 12:40:03","20685"
"AO5LKNSE0BD2A","caus_thomas_fire_v2","3SNLUL3WO4O0AHAF9AJK636RCLPUL0","8","0","0","1","0","1",,"72693","2017-09-29 12:40:06","20686"
"A1QSUIQRZFQ85E","caus_thomas_fire_v2","37QW5D2ZRGNPGXYSQGFGMX2X7O5S8W","7","0","0","0","0","1",,"35582","2017-09-29 12:40:10","20687"
"A3O81LHBBI8NPK
","caus_thomas_fire_v2","3IHR8NYAM72RK4VYMWL9AGHHII34PM","6","0","0","1","0","1",,"25631","2017-09-29 12:40:17","20688"
"A3J2UG22S8BIW4","caus_thomas_fire_v2","3PPTZCWALQLSNDK272QO4HK0O9RZQJ","7","0","0","1","0","0",,"33411","2017-09-29 12:40:23","20689"
"AP4FDDWBJW470","caus_thomas_fire_v2","3PWWM24LHSZWBYHUW10AVFPT9U7284","8","0","0","1","0","0",,"28253","2017-09-29 12:40:41","20690"
"AVCLG9XDXN0JV","caus_thomas_fire_v2","3B3WTRP3DB3WP3041T6OVBK4T0P29T","6","0","0","0","1","0",,"37327","2017-09-29 12:40:58","20691"
"A4ZPIPBDO624H","caus_thomas_fire_v2","31T4R4OBOSH5924DJPXATS2KA1E7CV","7","0","0","1","1","0",,"68038","2017-09-29 12:41:10","20692"
"A3UVW94KB9UBAJ","caus_thomas_fire_v2","3LUY3GC63Z1O3RDHOUJGDS1R9KT7P9","0","0","0","0","1","1",,"7647","2017-09-29 12:41:34","20693"
"A385F5ZBEV6GWD","caus_thomas_fire_v2","3QEMNNSB2X0FEUARJLSLDYK2V1Q7DV","8","0","0","0","0","0",,"44873","2017-09-29 12:41:37","20694"
"A12MSYRHI3XWDT","caus_thomas_fire_v2","3XXU1SWE8MW3YC7VECGA8I292KNA0W","7","0","0","0","1","1",,"22662","2017-09-29 12:41:42","20695"
"A30NX5HEQGGFPP
","caus_thomas_fire_v2","3TS1AR6UQQFCCEONARNB1YNN7E67F6","7","0","0","0","0","0",,"45959","2017-09-29 12:41:44","20696"
"AZFG59B0MFKYQ","caus_thomas_fire_v2","3OVR4I9USPKCKGWDM90YAL7RNEOQ4Y","8","0","0","0","0","0",,"34866","2017-09-29 12:41:53","20697"
"AY7118XTQ3FDG","caus_thomas_fire_v2","30X31N5D63R3ZLR7NEZUIO8SXC5SA0","3","0","0","0","1","1",,"43927","2017-09-29 12:42:00","20698"
"A13FUEPWBCLBUY
","caus_thomas_fire_v2","3V5Q80FXIXSAA1BOKK5E4YHIT8F23C","8","0","0","0","1","0",,"37368","2017-09-29 12:42:00","20699"
"ABXDA2YDALKG8","caus_thomas_fire_v2","3C2NJ6JBKAIHE54Y23PTDCFOYP5N2C","2","0","0","0","1","1",,"89574","2017-09-29 12:42:17","20700"
"A33M7EZ72P8TWF","caus_thomas_fire_v2","3TGOYF991XN3T7X9IOBLXQ2APCIUUU","6","0","0","0","0","1",,"52042","2017-09-29 12:42:32","20701"
"A2EDI66B0KTBEH
","caus_thomas_fire_v2","31HQ4X3T3SBKV4IBK5OKR2O3RO4SLI","7","0","0","1","0","1",,"58963","2017-09-29 12:42:32","20702"
"AIZ8L7DXJOQAD
","caus_thomas_fire_v2","3ERMJ6L4DYTIIOG4WEROWO7W4FI7MD","5","0","0","1","0","1",,"22996","2017-09-29 12:42:53","20703"
"A1Y2WG07T3S64F","caus_thomas_fire_v2","3N4BPTXIO8TPQBSXOA7JR3TCNLKKUN","8","0","0","1","0","0",,"30283","2017-09-29 12:42:59","20704"
"A2L24GZ7YWKGDE","caus_thomas_fire_v2","3XM0HYN6NK09C6SRB2XMJ2T8V7WPEC","6","0","0","1","0","1",,"17002","2017-09-29 12:42:59","20705"
"A2IGPW784OFV3D","caus_thomas_fire_v2","3XIQGXAUMC9TC0F8ALTX75NUBJ27XX","6","0","0","1","1","1",,"34874","2017-09-29 12:43:02","20706"
" A2ZU1P6UYE1UBU ","caus_thomas_fire_v2","3OJSZ2ATDSXKAHVY4FA2FMWAIKS75N","8","0","0","0","1","1",,"26554","2017-09-29 12:43:44","20707"
"A3Q4T34SDWIHU9","caus_thomas_fire_v2","3F0BG9B9MPOIC55IFHFZQJU3DPW7Y3","4","0","0","0","0","1",,"50068","2017-09-29 12:43:46","20708"
"A142ZRU284W9O","caus_thomas_fire_v2","3E4GGUZ1T8SG6ZJV5QXDLKYK4U12KN","8","0","0","0","1","1",,"8841","2017-09-29 12:43:50","20709"
"A2E8RJ6KKBGEE","caus_thomas_fire_v2","3NS0A6KXC491AOQO46LCA3GYIMIZGO","7","0","0","1","0","0",,"6524","2017-09-29 12:44:05","20710"
"A3CF8ULBSE8MTL","caus_thomas_fire_v2","3WYGZ5XF3WG9BY0TZ5CJC2BO2OZKS7","7","0","0","1","1","1",,"10685","2017-09-29 12:44:12","20711"
"A319HGTKM0UY0V","caus_thomas_fire_v2","3NPFYT4IZC5C5TQ93OXRDI0NAMKXGP","6","0","0","0","0","0",,"52790","2017-09-29 12:44:49","20712"
"A37LZED187CKU3","caus_thomas_fire_v2","3YDGXNSEOZV6ECWH0FJYOUMRT83846","7","0","0","1","0","0",,"33981","2017-09-29 12:44:51","20713"
"A3L2UB07EZJAMD","caus_thomas_fire_v2","38JBBYETQOBNND68DI5YG4ID4B14E1","8","0","0","0","1","0",,"32985","2017-09-29 12:44:54","20714"
"A11C01B5PXL1QW","caus_thomas_fire_v2","3JNQLM5FT4NRQ51DQQ9E0KBZTU62LQ","6","0","0","0","0","1",,"63236","2017-09-29 12:44:56","20715"
"A1CRD463RZUEXE","caus_thomas_fire_v2","3YOH7BII098P3QHXT0HONPVV1STKVC","7","0","0","0","0","0",,"24250","2017-09-29 12:45:02","20716"
"A30EI064NHQEQO","caus_thomas_fire_v2","3PQ8K71NHXLZZP5D6ED3XOEMB6ZAAN","8","0","0","1","1","1",,"22728","2017-09-29 12:45:21","20717"
"AMNFTKDZS37SI","caus_thomas_fire_v2","3PJUZCGDJ6H7BI2THAFP52X7F0H892","7","0","0","0","1","1",,"26329","2017-09-29 12:45:36","20718"
"A3JT22BLG866CK","caus_thomas_fire_v2","3GU1KF0O4I2B53G71BVWIUNNSAJPBC","6","0","0","0","0","1",,"18378","2017-09-29 12:45:43","20719"
"AEK67RC8DN148","caus_thomas_fire_v2","3FDJT1UU74985W2IN9ZBJR1WO4S5KR","6","0","0","1","1","0",,"27987","2017-09-29 12:46:38","20720"
"A1G187YBG0DVMQ","caus_thomas_fire_v2","3OS46CRSLF0I4BW8RWNND6QD0X9V6I","6","0","0","0","1","0",,"14325","2017-09-29 12:46:59","20721"
"ALGT35T85XA2O","caus_thomas_fire_v2","3YOH7BII098P3QHXT0HONPVV1STVKN","8","0","0","0","0","1",,"54172","2017-09-29 12:47:01","20722"
"AFECJV2SCEZ82","caus_thomas_fire_v2","37XITHEISWAFRLOSS3VGY9TKBD8CRZ","4","0","0","1","1","1",,"46840","2017-09-29 12:47:04","20723"
"A2RR04JS69Z5LE","caus_thomas_fire_v2","3OLF68YTN92UVGMLHUZVBPPD8MCAF0","8","0","0","1","0","0",,"16196","2017-09-29 12:47:09","20724"
"A1SMJPKHJLZRC9
","caus_thomas_fire_v2","3HPZF4IVNMUOOM0E6YNA65MHE0MYCM","6","0","0","0","1","1",,"79250","2017-09-29 12:47:45","20725"
"A2PDDOU75JXTN7","caus_thomas_fire_v2","3VAR3R6G1P2AI56ZJZY72SSWAZ38OG","6","0","0","1","1","0",,"29252","2017-09-29 12:48:05","20726"
"A1QTFE8FVK3HMG","caus_thomas_fire_v2","3IOEN3P9S7K2IZGAKI3Y6IJXBT3615","5","0","0","0","0","0",,"16793","2017-09-29 12:48:08","20727"
"A1SQBU3MZKB312","caus_thomas_fire_v2","3E47SOBEYQX2YML92G17KHSTOHPIC1","7","0","0","1","1","0",,"25509","2017-09-29 12:48:33","20728"
"A39C210BKD7YNN","caus_thomas_fire_v2","3VNL7UK1XFKZACLUNUQC6UF5WBXFTQ","2","0","0","1","1","1",,"54927","2017-09-29 12:48:43","20729"
"AXJ1PE87PD0KK","caus_thomas_fire_v2","3MTMREQS4VJW628G7J9VFDBD3P2AWY","7","0","0","1","1","1",,"46468","2017-09-29 12:48:56","20730"
"A3Q1EZDNIUK41P","caus_thomas_fire_v2","35H6S234SA116HHTL55A98WEN9865N","6","0","0","0","0","0",,"44925","2017-09-29 12:49:22","20731"
"A1T2F28RSW49J","caus_thomas_fire_v2","3TK8OJTYM1MQEHED6SMWJ6HUV2ZPVI","8","0","0","1","0","0",,"258060","2017-09-29 12:49:36","20732"
"AE05QWB4IQA44
","caus_thomas_fire_v2","340UGXU9DY236MM9NELQTC4T3JRVUK","6","0","0","1","1","0",,"36000","2017-09-29 12:50:14","20733"
"A3FY7A6Z3EVNRX","caus_thomas_fire_v2","3SKEMFQBZ36RSELKL76EVBBNQUT8KW","6","0","0","0","0","0",,"25931","2017-09-29 12:50:20","20734"
"AMSD8C1YGP8F2","caus_thomas_fire_v2","3Z4XG4ZF48SXCEKRKQL3L5JPM37X89","4","0","0","0","1","1",,"34282","2017-09-29 12:51:07","20735"
"A1H49IS4NJB5I4","caus_thomas_fire_v2","3XIQGXAUMC9TC0F8ALTX75NUBJ1X7M","4","0","0","0","1","0",,"6775","2017-09-29 12:51:30","20736"
"AROOCBM042SJD","caus_thomas_fire_v2","392CY0QWG1SZ3I8U91VP1JG5W484IA","8","0","0","1","1","1",,"43700","2017-09-29 12:51:34","20737"
"A1BWR5RBQDZQ16","caus_thomas_fire_v2","39OWYR0EPKSVRYKOX0DBEB7KBDFFYF","2","0","0","1","1","0",,"16391","2017-09-29 12:51:57","20738"
"A3BBK5YDUBRKYW","caus_thomas_fire_v2","36PW28KO4ZX2P2MPMJFPT74DWLXAEI","8","0","0","1","0","1",,"38839","2017-09-29 12:51:57","20739"
"AKN67C89B5QW5","caus_thomas_fire_v2","3PZDLQMM0TMYN177DDGFX1LCZLSC2K","7","0","0","1","0","0",,"23772","2017-09-29 12:51:59","20740"
"A26RO8GGTQAXGG","caus_thomas_fire_v2","3UOUJI6MTDFVABR4NTM8HX1EJUZXUP","5","0","0","0","0","1",,"22771","2017-09-29 12:53:21","20741"
"AOOGCOBAZBWJ2","caus_thomas_fire_v2","39LNWE0K4UXYKG29O7M7ENEZVHVUIM","5","0","0","0","1","1",,"42477","2017-09-29 12:53:48","20742"
"A3OXSIR9YH1FT6","caus_thomas_fire_v2","3EG49X351UDA8013RBO51RNYG8HX6N","8","0","0","1","1","1",,"46428","2017-09-29 12:55:04","20743"
"AO8V7PH0R20J1","caus_thomas_fire_v2","36V4Q8R5ZK1SO6LJSD0UWFOR95AQMU","7","0","0","1","0","0",,"35550","2017-09-29 12:55:24","20744"
"A2AK649KPZ2IZN","caus_thomas_fire_v2","3YJ6NA41JBHHNMEJP38DGI600FTJPS","6","0","0","0","0","1",,"23886","2017-09-29 12:55:43","20745"
"A16J5YXTYHTM8B","caus_thomas_fire_v2","39RP059MEHU5K0JU9V341QTSN59MBE","8","0","0","0","1","1",,"40495","2017-09-29 12:56:09","20746"
"A1TLNLB9D87H6","caus_thomas_fire_v2","36H9ULYP62V5W9PPB0C84OSWY96JFP","4","0","0","0","0","1",,"42797","2017-09-29 12:56:19","20747"
"AUG2YR37BY9BK","caus_thomas_fire_v2","3WETL7AQWT929YUB237C25KUDI653G","6","0","0","0","0","1",,"82837","2017-09-29 12:56:31","20748"
"A2FC76I9VL80IC","caus_thomas_fire_v2","3WLEIWSYHOIP49INZ5UG8SISCDXH2Y","8","0","0","0","1","0",,"59832","2017-09-29 12:56:49","20749"
"A1NVJB5O4H7ZCJ
A1NVJB5O4H7ZCJ
","caus_thomas_fire_v2","32VNZTT0A75CWHBDZOPYFBHWJ0RR41","6","0","0","1","1","0",,"50790","2017-09-29 12:57:04","20750"
"A2KBTDHM44J7X4
","caus_thomas_fire_v2","3KMS4QQVK2R07TV7TLCK53S9DY6KFP","5","0","0","0","0","1",,"8079","2017-09-29 12:57:05","20751"
"A21H2UDDHN8ZF","caus_thomas_fire_v2","3SB4CE2TJVWBV2D6HO5HHWPKCR7XAD","5","0","0","1","0","0",,"31972","2017-09-29 12:57:13","20752"
"AYXIDCIGUA037","caus_thomas_fire_v2","3M68NM076H8QB4FRICIDC91AFRX6R1","8","0","0","0","1","1",,"148555","2017-09-29 12:57:25","20753"
"A2P9TZ6IKPWHGI","caus_thomas_fire_v2","3I7DHKZYGN1XPAA4MY8E3E9RG8BF5Z","5","0","0","0","0","1",,"40639","2017-09-29 12:57:51","20754"
"ABQ1B3GQ8AOTH","caus_thomas_fire_v2","3HVVDCPGTET5A32PSKI0VFML2MNTY1","4","0","0","1","0","1",,"54121","2017-09-29 12:58:07","20755"
"A6CSP11YO51MS
A6CSP11YO51MS
A6CSP11YO51MS
A6CSP11YO51MS
A6CSP11Y05","caus_thomas_fire_v2","3ZDAD0O1T1EGAYCFNOWYC1FC0GTTXV","2","0","0","0","0","1",,"41270","2017-09-29 12:58:42","20756"
"A26JIHKBORI9X","caus_thomas_fire_v2","3JBT3HLQF837N1JN7PBZ4CUQJD6ZPT","8","0","0","0","0","0",,"20040","2017-09-29 12:59:27","20757"
"A2WHC086WNUQNB","caus_thomas_fire_v2","34Q075JO1XE74OUVITNHXH96YQH01Y","8","0","0","1","1","0",,"30738","2017-09-29 13:00:05","20758"
"A37X1GHLB2HCX7","caus_thomas_fire_v2","37M28K1J0QEA0I8H0KQGQNH51TTAJ3","8","0","0","0","0","0",,"33969","2017-09-29 13:01:37","20759"
"AMA4SXSYNC35I","caus_thomas_fire_v2","3AMW0RGHOD3D6C5441059PNH9ZYPN2","8","0","0","0","0","1",,"114081","2017-09-29 13:01:53","20760"
"A2U3723LKNMHAI","caus_thomas_fire_v2","32AT8R96GLANEU55TJGLIPKM4FYUSF","6","0","0","1","1","0",,"60885","2017-09-29 13:02:01","20761"
"A2SYRGFCT7Y8KR","caus_thomas_fire_v2","3IHR8NYAM72RK4VYMWL9AGHHII44PN","6","0","0","1","1","1",,"56618","2017-09-29 13:02:26","20762"
"A2V9JE42W9BXQ5","caus_thomas_fire_v2","3VBEN272MK049C4A9ER4EAJVV7JGS1","7","0","0","1","0","1",,"285673","2017-09-29 13:03:21","20763"
"ASRI4XGCPE999","caus_thomas_fire_v2","3IKZ72A5B4H1FZGAQY40XV9D7TBNFX","4","0","0","1","0","1",,"51096","2017-09-29 13:03:44","20764"
"A1UHNDB2EQ8TK0","caus_thomas_fire_v2","3V5Q80FXIXSAA1BOKK5E4YHIT8G32E","5","0","0","1","1","1",,"5379","2017-09-29 13:03:56","20765"
"A3ACR8IG31Q7K6","caus_thomas_fire_v2","3U8YCDAGXPHVLSEC38DWYIHE629Q0J","6","0","0","1","0","0",,"42802","2017-09-29 13:04:10","20766"
"A2NL38BFEE3BVY
","caus_thomas_fire_v2","3DZQRBDBSLG3F0SMEZKKVGUMR2DS34","7","0","0","1","1","0",,"25387","2017-09-29 13:04:51","20767"
" A99I0A6RMSRSN","caus_thomas_fire_v2","3IXQG4FA2TZQDG00KMZZW4N8N63B95","4","0","0","0","1","0",,"9825","2017-09-29 13:05:10","20768"
"A2CR0VOEH7P7L4","caus_thomas_fire_v2","3WJ1OXY92AHLG1CY9GTP1X8RLI08AI","3","0","0","1","1","0",,"33493","2017-09-29 13:05:10","20769"
"ALUG7K9OMDS7G","caus_thomas_fire_v2","31Z0PCVWUKGMVJ6O5BS0I22OYNET70","7","0","0","0","1","1",,"43649","2017-09-29 13:05:20","20770"
"A2TBXASXZIRNNW","caus_thomas_fire_v2","392CY0QWG1SZ3I8U91VP1JG5W47I4N","8","0","0","1","0","1",,"25009","2017-09-29 13:05:47","20771"
"A3JIXUMSPOB36C","caus_thomas_fire_v2","3EJJQNKU9R668TZ8EV9H90Q0O5DRHN","6","0","0","1","1","1",,"119863","2017-09-29 13:06:04","20772"
"A2V4PRG5UBNIX0","caus_thomas_fire_v2","3FIJLY1B6U51IKSN6DHS1KE878BPFU","6","0","0","0","1","0",,"24102","2017-09-29 13:07:13","20773"
"A14ZZHR5MXBT3C","caus_thomas_fire_v2",,"8","0","0","1","0","0",,"40601","2017-09-29 13:07:15","20774"
"A364KJDYEBAWC9","caus_thomas_fire_v2","3QHK8ZVMIMJLEI199J2P1DE3N0KBL2","0","0","0","0","1","1",,"23264","2017-09-29 13:07:28","20775"
"A1VJXWMG93V1ZX","caus_thomas_fire_v2","3JAOYWH7VI52QPMCBZOTA7JDZ0HL92","8","0","0","1","0","1",,"47685","2017-09-29 13:07:47","20776"
"A21KXWKFWGBCZ3","caus_thomas_fire_v2","3TDXMTX3CBVDI5C8SPO4YH0JSVF6IY","3","0","0","1","1","1",,"12149","2017-09-29 13:07:51","20777"
"A26ZENZ5G8AEGM","caus_thomas_fire_v2","3HMIGG0U4L7MCJA1PM754JQYO938YS","6","0","0","1","1","0",,"28563","2017-09-29 13:08:51","20778"
"A36XTKYLP4IRDN","caus_thomas_fire_v2","3TMFV4NEP8FINEF1ALPHJM5ID138WT","8","0","0","1","1","0",,"32914","2017-09-29 13:09:04","20779"
"A1X2NKYJNHB1A5
A1X2NKYJNHB1A5
A1X2NKYJNHB1A5","caus_thomas_fire_v2","3YMU66OBIN9FJ3QUYKF5AWCTMW3GHH","7","0","0","1","0","1",,"50406","2017-09-29 13:10:34","20780"
" A10DGGOQ9N186P","caus_thomas_fire_v2","3PIWWX1FJJ7L1BBLUQ3TJMKORGOJJT","7","0","0","0","1","0",,"44188","2017-09-29 13:11:22","20781"
"A35ARURSRU6UAZ","caus_thomas_fire_v2","3GD6L00D3SY472127YAFVEGJ1TJM1W","4","0","0","0","1","0",,"60874","2017-09-29 13:11:50","20782"
"A1G452MFAS690B","caus_thomas_fire_v2","3YT88D1N08Z5RHFE9QBI4U3CA82K3H","7","0","0","0","0","1",,"17042","2017-09-29 13:12:14","20783"
"AZ6P64VGKUJNJ","caus_thomas_fire_v2","3QUO65DNQUP8G2DCM2ZCYKAL7QWOUD","3","0","0","1","0","0",,"57090","2017-09-29 13:12:31","20784"
"A2ECTA4WL71XWL","caus_thomas_fire_v2","3LUY3GC63Z1O3RDHOUJGDS1R9KUP7S","2","0","0","1","1","0",,"58858","2017-09-29 13:13:11","20785"
"A312SMN11YLE66","caus_thomas_fire_v2","30IQTZXKAK7FUPFOPM8OSQD735XX0O","4","0","0","1","1","1",,"15291","2017-09-29 13:14:24","20786"
"ANMXMEB55AGM6","caus_thomas_fire_v2","3R5F3LQFV2LP217MSPYKFCP0989ZOB","6","0","0","0","0","0",,"40198","2017-09-29 13:14:57","20787"
"A1OR82RF1ZFWP","caus_thomas_fire_v2","38F5OAUN5NDWQAFT5HBB4JZ0NTL7H6","6","0","0","0","0","1",,"31218","2017-09-29 13:15:36","20788"
"ADCUK2AHXYSBJ","caus_thomas_fire_v2","3OCHAWUVGOLH7FMSTFI6BASGH33XKU","8","0","0","1","0","1",,"48436","2017-09-29 13:16:17","20789"
"AW0K78T4I2T72","caus_thomas_fire_v2","3N1FSUEFL51IV7S8HNUEAM0S4Z2D4J","7","0","0","0","0","1",,"48321","2017-09-29 13:17:47","20790"
"A2ELDYT1S772YH","caus_thomas_fire_v2","3GNA64GUZE5UGZ0D0EJ8FDD5NAM5QL","8","0","0","1","1","1",,"42061","2017-09-29 13:18:01","20791"
"A1S6Y0P5M0HNWG","caus_thomas_fire_v2","3MX2NQ3YC9VEPW1PMSE09L9YKD7X58","5","0","0","0","0","1",,"8143","2017-09-29 13:18:16","20792"
"A2AWBDW9V1E9KT","caus_thomas_fire_v2","3NGMS9VZTLJPR73TSALNPQ0452QFFJ","7","0","0","1","1","1",,"18451","2017-09-29 13:19:04","20793"
"A90U84Y2QSBID","caus_thomas_fire_v2","3L4PIM1GQTHSUOPXOVD5V0L3E1RYRU","8","0","0","1","1","0",,"18179","2017-09-29 13:19:42","20794"
"AV4P7N58PU55P","caus_thomas_fire_v2","369J354OFDBZME6D21O1D5N3DIO6G7","6","0","0","1","0","1",,"29645","2017-09-29 13:21:01","20795"
"AKZD89B2WLSX7","caus_thomas_fire_v2","30LB5CDZNCB4ZKF3Q4W9PBTIB5W0ZP","4","0","0","1","1","0",,"116263","2017-09-29 13:21:24","20796"
"A1R1A9NW81OIOV","caus_thomas_fire_v2","3OE22WJIGIPB1EQS1FRGNP5LMRFQUO","7","0","0","0","0","1",,"38666","2017-09-29 13:21:30","20797"
"A1DJBDVXF6Z1KK","caus_thomas_fire_v2","3ERET4BTVMAR6J4UQZCSV76YA0D9KO","8","0","0","1","0","0",,"65015","2017-09-29 13:21:49","20798"
"A2GXHECU31O81V","caus_thomas_fire_v2","3NG53N1RLVKS35I0YZBMRSXMK4YP8D","6","0","0","0","1","0",,"2748","2017-09-29 13:21:56","20799"
"A1GWM8H8W65VYM","caus_thomas_fire_v2","34PGFRQONOC77VBK1PM88CEWTCYJWP","7","0","0","0","0","0",,"23423","2017-09-29 13:21:57","20800"
"A2KHLQ2YFZRI67","caus_thomas_fire_v2","3ITXP059PWKE0EUBHKC7BNBBNZ2JSA","4","0","0","1","1","0",,"50837","2017-09-29 13:22:26","20801"
"A3D6DQGF78M17W","caus_thomas_fire_v2","3T3IWE1XG6OW11B31A16ITJJ3D8TQ0","7","0","0","1","1","0",,"32535","2017-09-29 13:22:35","20802"
"A2K051D2F1W2NX","caus_thomas_fire_v2","3U4J9857OECMZXC75P1FI8W2SGG7BQ","0","0","0","1","0","1",,"54675","2017-09-29 13:22:35","20803"
"A1FJAVZWHRQ4HH","caus_thomas_fire_v2","3NAPMVF0ZWGSBKCBMW84HFTYYA427K","6","0","0","1","1","0",,"29286","2017-09-29 13:23:43","20804"
"A1QTXDVUDSAMG2
","caus_thomas_fire_v2","3VBEN272MK049C4A9ER4EAJVV7LSGF","8","0","0","0","1","0",,"40237","2017-09-29 13:25:55","20805"
" A27B0BV6MNTEPZ","caus_thomas_fire_v2","3Q8GYXHFEP3QMYQUVWIDV8OOJVM5CH","6","0","0","0","0","1",,"54145","2017-09-29 13:27:49","20806"
"AT468RB7BWBQW
","caus_thomas_fire_v2","3NJM2BJS4W7UF88DFBRRTET5AVJPCJ","6","0","0","0","0","0",,"3052","2017-09-29 13:30:54","20807"
"A1S6BP97XORRKU","caus_thomas_fire_v2","3C6FJU71TQUKAGHESP8A0B8NL0WYUZ","5","0","0","1","0","1",,"73273","2017-09-29 13:31:34","20808"
"A1FUR4UJ0S46W6","caus_thomas_fire_v2","3PJUZCGDJ6H7BI2THAFP52X7F0K895","6","0","0","0","0","0",,"32235","2017-09-29 13:31:52","20809"
"A2E6YPCJHJOLRD
","caus_thomas_fire_v2","3BV8HQ2ZZW2YCNTAG1WRHJC0FNCA60","8","0","0","0","0","1",,"22543","2017-09-29 13:32:24","20810"
"A2HNX8GVRP80OG","caus_thomas_fire_v2","33PPUNGG386SZEZ2KHFO97U5KVXRZG","8","0","0","1","0","0",,"49100","2017-09-29 13:33:43","20811"
" A1SG071MSEZYM4
A1SG071MSEZYM4","caus_thomas_fire_v2","3WEV0KO0OMT1XSUJ7OQW8PGYIF6DSR","2","0","0","1","0","1",,"132858","2017-09-29 13:33:58","20812"
"A20207200LKV1A","caus_thomas_fire_v2","3X4MXAO0BGPO5JUX9UVHA30N3TTWRV","1","0","0","1","0","0",,"48889","2017-09-29 13:34:09","20813"
"A38IMMFKB2JJQK","caus_thomas_fire_v2","32EYX73OY0ABDF5SEUGGSFFQIDIURU","8","0","0","0","1","0",,"23285","2017-09-29 13:34:32","20814"
"A2NMWBVYWN4O51","caus_thomas_fire_v2","3QAPZX2QN4EET9CR1XNV20JBQWX20J","7","0","0","0","0","1",,"43640","2017-09-29 13:40:03","20815"
"A1VIP6S8H2XXH7","caus_thomas_fire_v2","39OWYR0EPKSVRYKOX0DBEB7KBDGFYG","8","0","0","1","0","0",,"15288","2017-09-29 13:40:57","20816"
"A1K78KY8SGVH4J","caus_thomas_fire_v2","3RWE2M8QWHBAIV1KNGLFUOM91RQN0X","2","0","0","0","1","0",,"35960","2017-09-29 13:41:22","20817"
"A2ST86YP0N2X5J","caus_thomas_fire_v2","308Q0PEVB8E00OE6QWRGIRRLIWPI9N","7","0","0","0","1","1",,"463799","2017-09-29 13:41:40","20818"
"A285E5FTA8GGID
A285E5FTA8GGID
A285E5FTA8GGID
A285E5FTA8GGID
A285E5FTA8GGID","caus_thomas_fire_v2","33FOTY3KEMMRYGPBU9G1SIB77FJC18","2","0","0","0","0","0",,"58636","2017-09-29 13:46:15","20819"
"A10N9D9CBT55DX","caus_thomas_fire_v2","3GU1KF0O4I2B53G71BVWIUNNSAPPBI","0","0","0","0","0","0",,"21901","2017-09-29 13:46:18","20820"
"A1U7O93JY3WFMU","caus_thomas_fire_v2","36TFCYNS44BQ5PLKNUF9YICOPM3HXE","6","0","0","1","0","0",,"59043","2017-09-29 13:46:33","20821"
"A2QUXO9OJY69QM","caus_thomas_fire_v2","3QY7M81QH7NNS0G1B2E8HBFSFAS7KD","6","0","0","0","0","1",,"148102","2017-09-29 13:46:33","20822"
"AM7OULNBDPOA4","caus_thomas_fire_v2","33NF62TLXJ3GCVH3CB35K1K165SKJX","8","0","0","1","1","0",,"49973","2017-09-29 13:47:21","20823"
"A29U4ZQRLMIB61","caus_thomas_fire_v2","37KGEN7NJ3RD9XHHKGDXDESC9E4PP3","5","0","0","1","1","0",,"37983","2017-09-29 13:47:37","20824"
"APQM2KTVCKDDV","caus_thomas_fire_v2","392CY0QWG1SZ3I8U91VP1JG5W4DI4T","7","0","0","1","0","0",,"44439","2017-09-29 13:47:42","20825"
"A1QX6AXRT6T94R","caus_thomas_fire_v2","3CCZ6YKWR7KOO0JRJC8MTINGDAM593","8","0","0","0","0","0",,"41015","2017-09-29 13:47:55","20826"
"A9WIOFVRSYW3L","caus_thomas_fire_v2","3WAKVUDHUWH1VWLD5GIANYOQH1R7UB","5","0","0","0","1","1",,"37123","2017-09-29 13:48:08","20827"
"A2RX4XCYXUBQ4Z","caus_thomas_fire_v2","3TMSXRD2X610CEVGB0G24CIAZV1W11","7","0","0","0","1","1",,"22589","2017-09-29 13:49:33","20828"
"A3LIFFLOK79ASD","caus_thomas_fire_v2","3HHRAGRYX86AWAP9OR4L2ON7U5QO9Q","5","0","0","1","0","1",,"64532","2017-09-29 13:49:40","20829"
"AJNQ2PBD07FKE","caus_thomas_fire_v2","3R2UR8A0IAH0X677R7AZIR9P18DXOE","8","0","0","0","0","1",,"26326","2017-09-29 13:50:12","20830"
"A2YLSDVP8Z0ZMV
","caus_thomas_fire_v2","3PPTZCWALQLSNDK272QO4HK0O9XQZG","5","0","0","1","1","0",,"70211","2017-09-29 13:50:33","20831"
"A3ML3ZF116HJQ0","caus_thomas_fire_v2","3R9WASFE2ZHVWOUTTMFUSIGMH7OZFV","8","0","0","0","1","0",,"34162","2017-09-29 13:50:44","20832"
"AIDU9BF0OZLBL","caus_thomas_fire_v2","37TRT2X24QSFJSD96YQCLY1BJBKBJ5","8","0","0","1","0","1",,"30246","2017-09-29 13:51:20","20833"
"A2J5N770I859WE","caus_thomas_fire_v2","351SEKWQS0IYZXHENRUAWGHSQQRMDR","6","0","0","0","1","1",,"32541","2017-09-29 13:51:57","20834"
"A2G8UI423QZYJJ","caus_thomas_fire_v2","3SKEMFQBZ36RSELKL76EVBBNQUZ8K2","6","0","0","1","0","1",,"274636","2017-09-29 13:54:14","20835"
"A1TGV7LT6LTIQU","caus_thomas_fire_v2","3Z7EFSHGN9FZOHA41218NRF8CUZXCM","7","0","0","0","1","0",,"56240","2017-09-29 13:54:44","20836"
"A1AEV3GK17B1YP","caus_thomas_fire_v2","3SEPORI8WN000XDLI6T2EH5VKRDAZV","8","0","0","0","0","0",,"26453","2017-09-29 13:55:10","20837"
"AEGJR6BE1ZRK0","caus_thomas_fire_v2","3MTMREQS4VJW628G7J9VFDBD3P9AW5","8","0","0","1","0","0",,"45281","2017-09-29 13:56:13","20838"
"ALZQCQHWYUTP","caus_thomas_fire_v2","3Q5C1WP23M26ZVGWFZTTEC5XFYZ15R","7","0","0","0","0","1",,"28176","2017-09-29 13:56:26","20839"
"A23JA6ICO4BPQ5","caus_thomas_fire_v2","3MMN5BL1WZ50H5FHU2OYJ7VGZD3M3U","6","0","0","1","1","1",,"11251","2017-09-29 13:56:27","20840"
"ARPBS72HUCKD4","caus_thomas_fire_v2","3A4TN5196KJ22RAPWYJMK5REO4HCH9","6","0","0","0","1","1",,"20731","2017-09-29 13:57:02","20841"
"A8TIL9U6YHG5","caus_thomas_fire_v2","3ZGVPD4G6TI5FTCUO6KJ9MVN8GYZT5","5","0","0","0","1","1",,"50598","2017-09-29 14:00:32","20842"
" A1BH6H9WRK49I","caus_thomas_fire_v2","34QN5IT0TZSPFOEGHEWWCRWECWP80S","6","0","0","0","0","0",,"30447","2017-09-29 14:03:55","20843"
"A3CYP6BA4ATSY8","caus_thomas_fire_v2","3TDXMTX3CBVDI5C8SPO4YH0JSVM6I5","7","0","0","0","0","0",,"24248","2017-09-29 14:04:26","20844"
"A38XRCVYVF4A31","caus_thomas_fire_v2","3XIQGXAUMC9TC0F8ALTX75NUBJ9X7U","1","0","0","1","1","0",,"43027","2017-09-29 14:04:41","20845"
"A2Z3I9XW0SHBPY","caus_thomas_fire_v2","3SITXWYCNVAGECIYN25DC79QU91BXV","7","0","0","1","1","1",,"83528","2017-09-29 14:05:25","20846"
"A2WVH84QT97HX2","caus_thomas_fire_v2","3J88R45B2GZII6J867NE7REFBDFXP1","5","0","0","0","0","1",,"3274","2017-09-29 14:05:59","20847"
"A2MPCT1O95PVL9","caus_thomas_fire_v2","37M28K1J0QEA0I8H0KQGQNH51T1AJB","8","0","0","0","1","0",,"11751","2017-09-29 14:06:34","20848"
"A2UJELQEI23YOI","caus_thomas_fire_v2","336YQZE83VF3VK2L8LCRY4T0D9VM5L","4","0","0","0","0","1",,"26320","2017-09-29 14:07:12","20849"
"A1IPD4WBT3A5GG","caus_thomas_fire_v2","3H8DHMCCW9C399HB2FHUH3PO1LYDKF","1","0","0","1","0","1",,"48911","2017-09-29 14:08:15","20850"
"A1TCLOG8OV3P93","caus_thomas_fire_v2","30H4UDGLT2J7OUK4S0L5WAYH49WMP7","8","0","0","0","1","0",,"30008","2017-09-29 14:08:35","20851"
"A14YLHFZLG6ZH0","caus_thomas_fire_v2","3UNH76FOCS61X8C5JNHO91RT8EZMY1","8","0","0","0","1","0",,"23052","2017-09-29 14:09:01","20852"
"A1SBHQOY0EBXFZ","caus_thomas_fire_v2","336KAV9KYQTBQ48C95Y4USDV29J2YR","7","0","0","0","0","1",,"44852","2017-09-29 14:12:58","20853"
"A2GOUEL2TTOUN3","caus_thomas_fire_v2","3ZDAD0O1T1EGAYCFNOWYC1FC0GWXT2","4","0","0","0","1","0",,"102209","2017-09-29 14:13:22","20854"
"ASVU8IUWURJTW","caus_thomas_fire_v2","3PJUZCGDJ6H7BI2THAFP52X7F0Q89B","8","0","0","1","1","0",,"26953","2017-09-29 14:14:31","20855"
"A1T0NW527WZT7G","caus_thomas_fire_v2","3LYA37P8IQOAUCJROJQOMD1OY0MKBF","7","0","0","1","1","1",,"12732","2017-09-29 14:15:16","20856"
"AYSG3J2U3UF1Y","caus_thomas_fire_v2","3IUZPWIU1O82IFH2JAMK9RE9814WK7","8","0","0","1","0","1",,"28299","2017-09-29 14:16:14","20857"
"A241PV6A122I5X","caus_thomas_fire_v2","3VFJCI1K4Z0S8X4XUPRZO0EZ959GRM","5","0","0","1","0","1",,"14557","2017-09-29 14:16:45","20858"
" A1JOGLG7TRDN37","caus_thomas_fire_v2","323Q6SJS8IH953UZN09NSBCHLHBHFR","8","0","0","0","1","1",,"38464","2017-09-29 14:18:58","20859"
"A1687V997CCMXQ","caus_thomas_fire_v2","3UXUOQ9OKEYHGN7FZB1JNXCWAY2A75","8","0","0","0","0","1",,"72170","2017-09-29 14:19:52","20860"
"
A3QUWIT972BYUH   
","caus_thomas_fire_v2","37U1UTWH9VNDFIYFBRFBWNX1LMX8RZ","7","0","0","1","0","1",,"21740","2017-09-29 14:21:52","20861"
"A2ZBYVQLDUZOV7","caus_thomas_fire_v2","3SLE99ER0NE5J7IDOKTY9SP1290ZBH","8","0","0","1","0","0",,"32875","2017-09-29 14:23:57","20862"
"A2XMNG4YU43G39","caus_thomas_fire_v2","39N5ACM9HEOSHA1A3RH0ROSX4AR9PX","0","0","0","1","1","1",,"33894","2017-09-29 14:25:27","20863"
"A3EIVR2LS7CCWB","caus_thomas_fire_v2","32VNZTT0A75CWHBDZOPYFBHWJ014RO","6","0","0","1","1","0",,"44739","2017-09-29 14:25:43","20864"
"A29PPNC373B8E3","caus_thomas_fire_v2","3RANCT1ZVFIOX8O3IXUQS0AM0RLBU4","7","0","0","0","1","1",,"55124","2017-09-29 14:28:59","20865"
"A3I4GTLPDHWT8J","caus_thomas_fire_v2","3018Q3ZVOIRRY6RU8PZPSE3WBAXAR5","8","0","0","0","0","0",,"25824","2017-09-29 14:29:02","20866"
"A1I4VM94N3EM0W","caus_thomas_fire_v2","3137ONMDKG63ZTZS8J7ZPTFGUGKGEA","6","0","0","0","0","0",,"53245","2017-09-29 14:29:04","20867"
"A10L6JFWPRXEKM
A10L6JFWPRXEKM
A10L6JFWPRXEKM","caus_thomas_fire_v2","3BWI6RSP7GAK60ORFG35JG2NVD17EY","6","0","0","0","1","1",,"97510","2017-09-29 14:30:08","20868"
"ATB9VOR75W6P3
ATB9VOR75W6P3
ATB9VOR75W6P3
","caus_thomas_fire_v2","3BXQMRHWKZZKGZS09MKZ6GLGCQQUMD","7","0","0","1","1","0",,"53602","2017-09-29 14:30:55","20869"
"AMUV60QYHNUR3","caus_thomas_fire_v2","36W0OB37HWFFAKLZOC3UV3SZXM2ZHU","8","0","0","1","0","0",,"2172195","2017-09-29 14:31:55","20870"
"AKE2AEEOTWHZZ","caus_thomas_fire_v2","3DYGAII7PL9Y99IWKTSMDJIMEAVPQZ","7","0","0","1","1","1",,"47479","2017-09-29 14:31:57","20871"
"A2CF2BD4Q0ZDJN","caus_thomas_fire_v2","336KAV9KYQTBQ48C95Y4USDV29I2YQ","8","0","0","0","1","0",,"28261","2017-09-29 14:33:02","20872"
"A2DDLZD87UHANI","caus_thomas_fire_v2","35LDD5557A56D3NOF8GX0TCIAZOKM2","5","0","0","0","1","0",,"20989","2017-09-29 14:33:09","20873"
"ANNTZYP9M77TA","caus_thomas_fire_v2","3IX2EGZR7BK2ZZUY2VC2LD6F1XTJRW","5","0","0","1","0","0",,"4743","2017-09-29 14:41:38","20874"
"AFIFVNL3CREJN","caus_thomas_fire_v2","31LM9EDVOLTHK1269OVLCT15000NJ8","5","0","0","1","1","0",,"31124","2017-09-29 14:42:09","20875"
"A1JMJCVG86Y5RT","caus_thomas_fire_v2","3ERET4BTVMAR6J4UQZCSV76YA0NK99","8","0","0","1","1","1",,"26535","2017-09-29 14:43:58","20876"
"AISPU5QCK3QCE","caus_thomas_fire_v2","3M1CVSFP606RM5CUVAAPNOTRFOXAQ6","6","0","0","0","1","0",,"20831","2017-09-29 14:44:12","20877"
"AVPCIXCCK6FWQ","caus_thomas_fire_v2","32Q90QCQ1SM81FVBYASENL791X3KEJ","7","0","0","1","1","0",,"26159","2017-09-29 14:44:23","20878"
"A2WN7HF7WXYTRW","caus_thomas_fire_v2","3WJ1OXY92AHLG1CY9GTP1X8RLIB8AT","6","0","0","0","1","1",,"26971","2017-09-29 14:44:51","20879"
"A5GM9CNAS6G92","caus_thomas_fire_v2","3PJ71Z61R43P0II8IP6AQSAZ1UO19O","8","0","0","1","0","0",,"28846","2017-09-29 14:51:17","20880"
"A271U2W2KVE2UL","caus_thomas_fire_v2","320DUZ38G7NBA9LKMKIQM9S8ZOIJG0","8","0","0","0","0","0",,"80928","2017-09-29 14:51:59","20881"
"A3MOH6X140NNB9","caus_thomas_fire_v2","324G5B4FB39LFA9X794QYR0J1CU70F","4","0","0","1","1","0",,"48890","2017-09-29 14:53:47","20882"
"A2T7FFY79EWIJ2","caus_thomas_fire_v2","3HWRJOOET536PY8J3J1GE7YJIRHESV","8","0","0","1","1","1",,"34316","2017-09-29 14:55:09","20883"
"A1GS9V5QVMQ9VO","caus_thomas_fire_v2","3JWH6J9I9SEB2I4ULWI4E5ISSVWNBS","3","0","0","1","0","0",,"57898","2017-09-29 14:59:06","20884"
"ABMMFGRR6VFC","caus_thomas_fire_v2","3OB0CAO74HQF5UBUSQ1BHWJXRS5YH9","5","0","0","0","0","1",,"45219","2017-09-29 15:01:54","20885"
"A2D3TXA2QAVPXW","caus_thomas_fire_v2","3DH6GAKTYYQ1WFBOYC7IH3N2NIMYZZ","7","0","0","1","1","1",,"26360","2017-09-29 15:02:49","20886"
"A1MJX6Q6BTWA6
","caus_thomas_fire_v2","3ERET4BTVMAR6J4UQZCSV76YA0P9K0","7","0","0","1","0","0",,"45807","2017-09-29 15:03:50","20887"
"A33SBMZEFOYHJ3","caus_thomas_fire_v2","3EA3QWIZ4IWJK3NKO2WX9RSXC33ITY","5","0","0","1","1","0",,"37989","2017-09-29 15:06:23","20888"
"A1ZO9R72DWQRZ1","caus_thomas_fire_v2","3COPXFW7XBDCY6K17O8PHX6DF47KP6","7","0","0","0","0","1",,"31874","2017-09-29 15:07:25","20889"
"A1W16H497VK9Z2","caus_thomas_fire_v2","3A1COHJ8NJW0QOKCFM3HIJVVYD4H8G","6","0","0","1","1","1",,"24249","2017-09-29 15:09:28","20890"
"A8HSPSD88CUTS","caus_thomas_fire_v2","3TS1AR6UQQFCCEONARNB1YNN7ELF7T","5","0","0","1","0","0",,"45890","2017-09-29 15:11:30","20891"
"A352QLA6AIP5J2","caus_thomas_fire_v2","3WEV0KO0OMT1XSUJ7OQW8PGYIFISDI","2","0","0","0","0","0",,"51109","2017-09-29 15:11:57","20892"
"A2G9163W7Y67UD","caus_thomas_fire_v2","3TU5ZICBRD2D3HJFYCQBRXNWP00Q8L","5","0","0","0","0","1",,"55187","2017-09-29 15:13:40","20893"
"A2IUSWHE8E7ZLS","caus_thomas_fire_v2","39ASUFLU6X8ELFUIXT73DFFBX6MEX6","7","0","0","0","1","1",,"24996","2017-09-29 15:16:02","20894"
"A1RTLF0OVZI4QT","caus_thomas_fire_v2","3IO1LGZLK9YKTZ0VJ3CDLS65PZN683","8","0","0","0","1","0",,"14021","2017-09-29 15:17:13","20895"
"A18ZOLS2FGK8H7","caus_thomas_fire_v2","3AQF3RZ558JT8EAIRHIJVKNRC34F6X","6","0","0","1","1","0",,"51841","2017-09-29 15:22:02","20896"
"A1X72AEF3S3OCS
A1X72AEF3S3OCS","caus_thomas_fire_v2","3Y5140Z9DXHLSBUD7LND4HR0N0MPI4","0","0","0","1","1","0",,"42080","2017-09-29 15:24:39","20897"
"A26OJ4TA28AFHC","caus_thomas_fire_v2","3EFE17QCRC6I98ZLTK9MZAVWA79SHP","5","0","0","0","1","1",,"32240","2017-09-29 15:25:41","20898"
"AC8ETQXPDRR6P","caus_thomas_fire_v2","36NEMU28XFEX83H54MZ0O46DX69MWC","6","0","0","1","0","1",,"90300","2017-09-29 15:28:35","20899"
"A106SIXV5AM4KT","caus_thomas_fire_v2","3XXU1SWE8MW3YC7VECGA8I292K8A0H","7","0","0","1","1","0",,"46520","2017-09-29 15:30:58","20900"
"A13ADV6A8E5WAW","caus_thomas_fire_v2","3Q8GYXHFEP3QMYQUVWIDV8OOJVWC5Y","3","0","0","1","1","1",,"25810","2017-09-29 15:31:20","20901"
"AUFCBPDWGE42L","caus_thomas_fire_v2","37QW5D2ZRGNPGXYSQGFGMX2X7OR8SY","8","0","0","0","0","0",,"20339","2017-09-29 15:31:53","20902"
"A1ZDR2UN7M92LI
","caus_thomas_fire_v2","31Z0PCVWUKGMVJ6O5BS0I22OYN07T0","6","0","0","0","0","0",,"11686","2017-09-29 15:32:51","20903"
"AGNZAY090UGE6","caus_thomas_fire_v2","3K772S5NP8CHZPU3SPPHATRH9G9HEM","0","0","0","1","1","1",,"33395","2017-09-29 15:35:28","20904"
"A27TKWMGFUCDMY","caus_thomas_fire_v2","3AUQQEL7U5UNQ0ATP77645GMNUAV04","8","0","0","1","1","1",,"11493","2017-09-29 15:36:12","20905"
"AJWJR8GU46AQJ","caus_thomas_fire_v2","3LKC68YZ3A4L862HH2EDG8VIS6TOWY","7","0","0","1","1","0",,"34163","2017-09-29 15:38:43","20906"
"A33WAGEDFMSQSY","caus_thomas_fire_v2","3EA3QWIZ4IWJK3NKO2WX9RSXC3CTII","4","0","0","1","0","1",,"107322","2017-09-29 15:40:51","20907"
"A1AHDLWF5AQ8W","caus_thomas_fire_v2","3OE22WJIGIPB1EQS1FRGNP5LMR2QUB","7","0","0","0","0","0",,"32172","2017-09-29 15:44:38","20908"
"A2X52Z8AY561G3","caus_thomas_fire_v2","3CFJTT4SXTRWM5QDBZTW4V0FN6O7IN","6","0","0","1","0","0",,"12746","2017-09-29 15:45:02","20909"
"A121FRZFN86KC1","caus_thomas_fire_v2","3VE8AYVF8MYGCST6KWFHFYJIIY28FK","8","0","0","1","0","1",,"25458","2017-09-29 15:46:30","20910"
"A2F2BDAO75VEZR","caus_thomas_fire_v2","3SB4CE2TJVWBV2D6HO5HHWPKCRWXA2","8","0","0","0","0","0",,"30578","2017-09-29 15:46:45","20911"
"A3J0IAI8AJBGKX","caus_thomas_fire_v2","3GFK2QRXX9IZ0WWZCNIE72VRBBRW54","8","0","0","0","1","0",,"39182","2017-09-29 15:49:55","20912"
"AUOYNTK0GOFOM","caus_thomas_fire_v2","3R0T90IZ1SDO2VFECS14Z5FD94OCGU","8","0","0","1","1","1",,"21403","2017-09-29 15:50:35","20913"
"A1517L56OPXUPV","caus_thomas_fire_v2","3PIWWX1FJJ7L1BBLUQ3TJMKORGEJJJ","8","0","0","1","0","1",,"51087","2017-09-29 15:52:43","20914"
"A248P03SBIGVNH","caus_thomas_fire_v2","30LSNF239UWP04T75NC184J7CQPI25","8","0","0","1","0","1",,"5709","2017-09-29 15:53:54","20915"
"A1WMKGFK1XFPBV
A1WMKGFK1XFPBV
A1WMKGFK1XFPBV
A1WMKGFK1XFPBV","caus_thomas_fire_v2","32EYX73OY0ABDF5SEUGGSFFQID6URI","4","0","0","0","1","0",,"38218","2017-09-29 15:53:58","20916"
"A3B9OZQTE4US3T","caus_thomas_fire_v2","3A7Y0R2P2OPMWVGABUIUAVS32EUJX8","5","0","0","1","0","0",,"34509","2017-09-29 15:55:03","20917"
"A340UGIDGIF4W6","caus_thomas_fire_v2","3GA6AFUKOOPEPRE6358LR2NKIRPH31","7","0","0","0","1","0",,"5501","2017-09-29 15:55:30","20918"
"A1SHLCA57M79E6","caus_thomas_fire_v2","3A0EX8ZRN8P5EH88SYRFVLGZWFFBYL","3","0","0","0","1","0",,"42405","2017-09-29 15:55:30","20919"
"A3M0E7KBX62LDO","caus_thomas_fire_v2","384PI804XS27Y8TPVC21TIWFOQMS02","7","0","0","0","0","0",,"31618","2017-09-29 15:55:42","20920"
"A1BEBN58T1E0TH","caus_thomas_fire_v2","3PWWM24LHSZWBYHUW10AVFPT9U028X","8","0","0","1","0","0",,"14941","2017-09-29 15:55:47","20921"
"A18E16UFE351U6","caus_thomas_fire_v2","3WZ36BJEV3H9XV9EIS4GN4OKHDXBTW","7","0","0","0","1","1",,"59541","2017-09-29 15:55:58","20922"
"A2YAZATN6OGRDR","caus_thomas_fire_v2","3A1COHJ8NJW0QOKCFM3HIJVVYDHH8T","8","0","0","1","0","0",,"28632","2017-09-29 15:56:54","20923"
"ACXP8KHFX06KR","caus_thomas_fire_v2","3KXIR214I4HVSXUSKYAXE39O78324P","3","0","0","0","0","0",,"19931","2017-09-29 15:57:09","20924"
"A3B3YCD4728X94
","caus_thomas_fire_v2","338JKRMM260E9CDRCKNVEA1QO1HHAX","3","0","0","0","1","1",,"48500","2017-09-29 15:57:17","20925"
"A2MCRVU8I9VNHG","caus_thomas_fire_v2","30BUDKLTXDW5JWA8RNO8LWOR47PE59","7","0","0","0","0","0",,"33135","2017-09-29 15:58:07","20926"
"A126UU7IXRJC95","caus_thomas_fire_v2","3VELCLL3GKKY1S9LLB620OWA4SYF19","6","0","0","1","1","0",,"24496","2017-09-29 15:58:45","20927"
"AK467M5VTG7N4","caus_thomas_fire_v2","34HJIJKLP5X4POSU88U8G86Z46WV4Q","8","0","0","0","1","0",,"35619","2017-09-29 15:58:54","20928"
"A24JFEQGTMLW6O","caus_thomas_fire_v2","3MB8LZR5BFUM7L53FWFI0GXTAULKLN","5","0","0","1","0","0",,"38181","2017-09-29 15:59:49","20929"
"A2HBRQA37M4NFO","caus_thomas_fire_v2","3PQMUDRV7R7TBP79UQXTVKQO1M2IIW","8","0","0","1","1","1",,"51754","2017-09-29 16:00:55","20930"
"A18O3DEA5Z4MJD","caus_thomas_fire_v2","308XBLVESI5WHGWME3ZLNPN2TS0BRJ","5","0","0","1","0","1",,"20621","2017-09-29 16:02:48","20931"
"AQIHP9D5DG5J","caus_thomas_fire_v2","3RRCEFRB7MDPGAUO3R38FWCS1EIB42","8","0","0","0","1","0",,"22325","2017-09-29 16:03:11","20932"
"A31BO9NWS3PW78","caus_thomas_fire_v2","3WQ3B2KGE8H8OBX5G9K6HY5PPU81BF","6","0","0","0","0","1",,"39184","2017-09-29 16:03:33","20933"
"A2HHK2B1GUH9GX","caus_thomas_fire_v2","3RXCAC0YIRQMQSP1VGLZXJJUJD6G8V","7","0","0","1","0","1",,"40973","2017-09-29 16:04:15","20934"
"A14QGS6XH65BGQ","caus_thomas_fire_v2","345LHZDEDXTJUDKQ34FKAHCACZT3UQ","2","0","0","1","1","0",,"64689","2017-09-29 16:04:18","20935"
"A19ZWBQT8A3LIR","caus_thomas_fire_v2","3TMSXRD2X610CEVGB0G24CIAZVOW1O","6","0","0","0","0","1",,"50113","2017-09-29 16:05:54","20936"
"AESEZX8S7Z3IC","caus_thomas_fire_v2","34Z02EIMISE8D864KC7R3NS1Q92T0U","7","0","0","1","1","0",,"16326","2017-09-29 16:06:31","20937"
"A1CUDBHABW56JO","caus_thomas_fire_v2","3FIUS151DV31J7VJEEXNPW0S7XKGGE","8","0","0","1","1","1",,"61593","2017-09-29 16:09:06","20938"
"A2IO9OAT2EUR1M","caus_thomas_fire_v2","3KMS4QQVK2R07TV7TLCK53S9DZ1FKH","7","0","0","0","1","1",,"72446","2017-09-29 16:13:01","20939"
"AJNQDG8RPYULZ","caus_thomas_fire_v2","3R8YZBNQ9HJ933EWO7Y5DXR1EHAQ7G","8","0","0","0","0","0",,"22085","2017-09-29 16:13:08","20940"
"A1S6QWSCBRYSFZ","caus_thomas_fire_v2","3J4Q2Z4UTY4OTIFXWF6H5DQI78JQWI","7","0","0","1","1","0",,"26405","2017-09-29 16:14:16","20941"
"A2SFA3V8W9ZN1T","caus_thomas_fire_v2","30BXRYBRP4YBGPGUDPJNWZYHGLNWHS","8","0","0","1","1","1",,"36699","2017-09-29 16:15:51","20942"
"A6K2AO2O62VNI","caus_thomas_fire_v2","3QXNC7EIPIWPTTXQM62ACNRPW3190E","4","0","0","1","1","1",,"16322","2017-09-29 16:15:55","20943"
"AZ9CV3Z86OUQH","caus_thomas_fire_v2","33IZTU6J812FVYZ0YOR82WJQYYAXS7","6","0","0","0","0","1",,"59115","2017-09-29 16:16:49","20944"
"A2JHT2BTY2QH9X
","caus_thomas_fire_v2","3TU5ZICBRD2D3HJFYCQBRXNWP1H8QM","5","0","0","1","0","0",,"112627","2017-09-29 16:17:27","20945"
"A257GI2KGYW73J","caus_thomas_fire_v2","33FBRBDW6O099G9WTUPG7SYFLMGC8L","8","0","0","0","0","1",,"45115","2017-09-29 16:18:21","20946"
"A2FI034M8JWC3F","caus_thomas_fire_v2","3YW4XOSQKQMNKA6BG011MOXDEGH1U0","8","0","0","1","0","0",,"58028","2017-09-29 16:19:02","20947"
"A3DFL72CC0P7UE","caus_thomas_fire_v2","39KFRKBFINWPXBXHW3W115GY3EYOY2","7","0","0","0","1","1",,"33102","2017-09-29 16:19:41","20948"
"ACIZKR30ALBE5","caus_thomas_fire_v2","33CID57104UGBNXWUQNJJUGRZ92L3I","6","0","0","1","1","1",,"31170","2017-09-29 16:20:10","20949"
"A2DFXNMQDTVMKB","caus_thomas_fire_v2","36V4Q8R5ZK1SO6LJSD0UWFOR966MQO","6","0","0","1","1","1",,"66837","2017-09-29 16:20:55","20950"
"A2VBNGKB2V7YRJ","caus_thomas_fire_v2","3NOKK93PR195FF312OHBPQU4H0NEE9","6","0","0","1","0","0",,"90745","2017-09-29 16:21:33","20951"
"AJLTTPMJ503QE","caus_thomas_fire_v2","3C6FJU71TQUKAGHESP8A0B8NL1QUYR","6","0","0","1","1","0",,"28311","2017-09-29 16:22:30","20952"
"AVI7K876BV3QL","caus_thomas_fire_v2","3B837J3LDOXVY2DOPPLGDEX2XGMRS0","5","0","0","0","1","0",,"42826","2017-09-29 16:23:44","20953"
"A3VGVIXUXNBUMS","caus_thomas_fire_v2","39PAAFCODM1O697KN9VGOGIRK6HVTS","6","0","0","0","1","0",,"55247","2017-09-29 16:24:19","20954"
"A1WYDO7PQJ8UG","caus_thomas_fire_v2","3NS0A6KXC491AOQO46LCA3GYINFZGN","8","0","0","1","1","1",,"33737","2017-09-29 16:25:25","20955"
"A2HIPDBIQTFGAX","caus_thomas_fire_v2","3VJ40NV2QIOTGPYNMX92TOOJODLOTK","8","0","0","1","1","1",,"15300","2017-09-29 16:26:19","20956"
"A1WISFBL3J5Z12","caus_thomas_fire_v2","3QY7M81QH7NNS0G1B2E8HBFSFAFK7D","8","0","0","0","0","1",,"62905","2017-09-29 16:27:59","20957"
"ALDQRWYZ8KQ9A","caus_thomas_fire_v2","36V4Q8R5ZK1SO6LJSD0UWFOR967MQP","7","0","0","0","1","1",,"43729","2017-09-29 16:28:26","20958"
"A10MOGV24YO346","caus_thomas_fire_v2","35L9RVQFCOJYOLRPIP4MEBDKV5EUHT","7","0","0","0","1","1",,"68410","2017-09-29 16:29:49","20959"
"A2DKVCJ3ZDJOQ
","caus_thomas_fire_v2","3I33IC7ZWF3AUMA9TZKOR6VOZI02A1","7","0","0","1","0","1",,"20452","2017-09-29 16:30:33","20960"
"A2C7PADOTOMFT6","caus_thomas_fire_v2","3DHE4R9OCWCB4DNCFZCYNS6RXEGG2W","6","0","0","0","0","0",,"45776","2017-09-29 16:31:36","20961"
"A2A27TLFWKDXUW","caus_thomas_fire_v2","31T4R4OBOSH5924DJPXATS2KA297CS","7","0","0","1","0","0",,"40180","2017-09-29 16:33:18","20962"
"A23NJOKU9E2EPA","caus_thomas_fire_v2","3AAJC4I4FGTB1QGPCC6F7G8EAFXZJS","8","0","0","0","1","0",,"38304","2017-09-29 16:34:43","20963"
"A209H73TTW9F87","caus_thomas_fire_v2","3QJOXOW4XJS3R3VEJM5U2YZDQ2EME6","7","0","0","0","1","1",,"188770","2017-09-29 16:34:46","20964"
"A10BH9PYCYUKDJ","caus_thomas_fire_v2","3D3VGR7TA0GRELS9ZAKF56PQ51T3RS","8","0","0","1","0","0",,"68755","2017-09-29 16:35:57","20965"
"A21VLIOPLOK8EQ","caus_thomas_fire_v2","3EFE17QCRC6I98ZLTK9MZAVWA8USHC","7","0","0","1","1","0",,"21307","2017-09-29 16:38:27","20966"
"A2MRWQ2SKCTLT4","caus_thomas_fire_v2","3Y54SXRO1LMOTUIKIJLBSUG86ZAUT4","8","0","0","1","0","0",,"42016","2017-09-29 16:39:33","20967"
"A15XX0WDRG29E7","caus_thomas_fire_v2","3B4YI393V9X7ZHD14ELL3O2YJJ8SSU","8","0","0","0","1","1",,"356966","2017-09-29 16:41:49","20968"
"A38HYEJCXR9FI5
A38HYEJCXR9FI5
A38HYEJCXR9FI5
A38HYEJCXR9FI5
A38HYEJCXR9FI5","caus_thomas_fire_v2","37M28K1J0QEA0I8H0KQGQNH51USAJ4","5","0","0","1","0","0",,"51719","2017-09-29 16:47:12","20969"
"A3GO2JCV966XGE","caus_thomas_fire_v2","35L9RVQFCOJYOLRPIP4MEBDKV49UHM","7","0","0","1","0","0",,"74690","2017-09-29 16:48:26","20970"
"A1EB5GYMZDUXXZ","caus_thomas_fire_v2","337RC3OW0530NWZFE0TP2P8AQTYLVI","7","0","0","0","1","1",,"32931","2017-09-29 16:49:24","20971"
"AR95C0P53AFWJ","caus_thomas_fire_v2","3M0NZ3JDP1Z3UR14NA2L66P9SE4Z58","8","0","0","1","1","0",,"32729","2017-09-29 16:51:32","20972"
"A3AV8KOZW78IEW","caus_thomas_fire_v2","3IXQG4FA2TZQDG00KMZZW4N8N729B4","4","0","0","0","0","1",,"57995","2017-09-29 16:52:52","20973"
"A31XYT36VCZD4O","caus_thomas_fire_v2","32VNZTT0A75CWHBDZOPYFBHWJ1R4RG","6","0","0","0","1","1",,"28556","2017-09-29 16:53:37","20974"
"ADIAEAPYRI8CK","caus_thomas_fire_v2","3X65QVEQI0O4ONTFNJYKCXKL5MELCF","3","0","0","1","0","0",,"34389","2017-09-29 16:53:48","20975"
"A3E3OELJKHW58C","caus_thomas_fire_v2","3LBXNTKX0RWXQJ31PIRHL1E06AQ9XD","4","0","0","1","1","1",,"20427","2017-09-29 16:54:03","20976"
"A1T6PRQQ8IN2ZU","caus_thomas_fire_v2","3QJOXOW4XJS3R3VEJM5U2YZDQ3MEM8","8","0","0","0","0","0",,"78518","2017-09-29 16:57:42","20977"
" A3BNLPSNM1GR01","caus_thomas_fire_v2","3KAKFY4PGU3ELMPQ9NQ6REOZI5D3IR","7","0","0","1","0","0",,"56865","2017-09-29 17:02:29","20978"
"A1DBCHREMYNOVT
","caus_thomas_fire_v2","3Z4XG4ZF48SXCEKRKQL3L5JPM47X8B","5","0","0","0","0","1",,"62064","2017-09-29 17:03:51","20979"
"A18V3RFUE8SU7R","caus_thomas_fire_v2","3XM0HYN6NK09C6SRB2XMJ2T8V8YPEG","8","0","0","0","1","1",,"40881","2017-09-29 17:05:27","20980"
"A5KSYD6R8RKZY","caus_thomas_fire_v2","3HSYG7LRBJZBNFNLUW3HLGKELVOKKU","8","0","0","0","0","0",,"42247","2017-09-29 17:08:54","20981"
"ARWVG6JFUVAMJ
ARWVG6JFUVAMJ
ARWVG6JFUVAMJ
ARWVG6JFUVAMJ","caus_thomas_fire_v2","3Y54SXRO1LMOTUIKIJLBSUG86ZCTU5","7","0","0","1","0","0",,"144177","2017-09-29 17:08:58","20982"
"A2D4VR2C6O7Z1Z","caus_thomas_fire_v2","3RWE2M8QWHBAIV1KNGLFUOM91SO0NA","6","0","0","0","0","1",,"28510","2017-09-29 17:12:56","20983"
"A1H1ZROJJ360M7","caus_thomas_fire_v2","3X0H8UUIT1P06YUAOJVM0D5JPWAWSJ","8","0","0","0","1","1",,"23729","2017-09-29 17:13:51","20984"
"A21FPAPLNTZ3QU","caus_thomas_fire_v2","3Z4XG4ZF48SXCEKRKQL3L5JPM49X8D","3","0","0","0","0","0",,"13835","2017-09-29 17:14:34","20985"
"A3JTDNRJYVCGQD","caus_thomas_fire_v2","358UUM7WRZ49F4TW1MN5IN16A3H7R3","8","0","0","1","0","0",,"45228","2017-09-29 17:15:45","20986"
"ALRBI7LQ4WCL","caus_thomas_fire_v2","3X73LLYYQ1FLTV7GLOS00GLQN9QNHZ","1","0","0","0","0","1",,"71342","2017-09-29 17:21:16","20987"
"A39YBLQYIUBR76","caus_thomas_fire_v2","3IAS3U3I0FHFDWF1ZDKKMHFUH1UB2G","7","0","0","0","1","1",,"44628","2017-09-29 17:24:40","20988"
"A10U08SAPJAEY6","caus_thomas_fire_v2","3IXQG4FA2TZQDG00KMZZW4N8N74B98","5","0","0","0","1","0",,"53861","2017-09-29 17:25:46","20989"
"A1PIWJSP8Q5UW7","caus_thomas_fire_v2","3WEV0KO0OMT1XSUJ7OQW8PGYIG5SD7","7","0","0","1","1","1",,"63095","2017-09-29 17:25:49","20990"
"AZNS2DZ5LA82T","caus_thomas_fire_v2","39GAF6DQWR1NXPVBLQB6IAZWSNWV1P","8","0","0","0","0","1",,"35807","2017-09-29 17:26:40","20991"
"A3JI7F2VYETJZD","caus_thomas_fire_v2","3WZ36BJEV3H9XV9EIS4GN4OKHE8BT9","7","0","0","1","1","0",,"36484","2017-09-29 17:29:12","20992"
"AYLYPUM9YFXXO","caus_thomas_fire_v2","3XUHV3NRVKZH361AHOWE6ZL4WORH54","8","0","0","0","0","0",,"30323","2017-09-29 17:31:50","20993"
"A1EFQJS8R8ZEUR","caus_thomas_fire_v2","3R6P78PK7KC5OCHPYEWUOFFHXR0GTV","6","0","0","1","1","1",,"36056","2017-09-29 17:34:57","20994"
"A173IPWYGBPVTP","caus_thomas_fire_v2","32AT8R96GLANEU55TJGLIPKM4G0SUH","4","0","0","1","0","0",,"58554","2017-09-29 17:35:00","20995"
"APFUNYI4230OK","caus_thomas_fire_v2","3J4Q2Z4UTY4OTIFXWF6H5DQI78RWQW","6","0","0","1","1","0",,"34755","2017-09-29 17:36:13","20996"
"A3PAAB5MNVPSUJ","caus_thomas_fire_v2","3DR23U6WE5F74YLYSJ66OCU5KBMETD","8","0","0","1","0","1",,"60938","2017-09-29 17:40:54","20997"
"A314TBEN5QMVV4","caus_thomas_fire_v2","3TU5ZICBRD2D3HJFYCQBRXNWP1PQ8C","7","0","0","1","1","1",,"73648","2017-09-29 17:45:51","20998"
"A2UO55619UKJ4L","caus_thomas_fire_v2","32M8BPYGATNFFY1E42XQA8D8MALGIF","8","0","0","1","0","1",,"32929","2017-09-29 17:47:33","20999"
"A3R3G4WIXS8ZFK","caus_thomas_fire_v2","39GAF6DQWR1NXPVBLQB6IAZWSNYV1R","8","0","0","0","0","1",,"17369","2017-09-29 17:47:37","21000"
"A5T9IFDZ3W4T6","caus_thomas_fire_v2","3L0KT67Y8EH4V3PA3KDALAQZ04DSYH","6","0","0","0","0","0",,"47793","2017-09-29 17:49:21","21001"
"A1ILV394W9AJVY","caus_thomas_fire_v2","3EWIJTFFVO86OPO7UHIW41S0N0PE01","7","0","0","1","0","1",,"182391","2017-09-29 17:51:35","21002"
"A3VVAFG6ATQX81","caus_thomas_fire_v2","3TPWUS5F892KZH5ERX5ML8113TSCW9","6","0","0","1","1","0",,"35416","2017-09-29 17:55:22","21003"
"A1T3YNSVCIU7SC","caus_thomas_fire_v2","3WOKGM4L71HS0G1WOVLS9DMER2RO0B","4","0","0","1","0","1",,"10086","2017-09-29 17:55:41","21004"
"A14KU93YDLT931","caus_thomas_fire_v2","3OE22WJIGIPB1EQS1FRGNP5LMSHUQW","7","0","0","1","0","0",,"84832","2017-09-29 17:56:05","21005"
"ATT6OXK7QTEW0","caus_thomas_fire_v2","3TMFV4NEP8FINEF1ALPHJM5ID278WZ","5","0","0","0","0","1",,"52578","2017-09-29 17:58:09","21006"
"A2K9N9ZEJK81XZ","caus_thomas_fire_v2","33SA9F9TRXVZWFPSNOBHBW14O54EW3","8","0","0","1","0","1",,"44816","2017-09-29 17:59:50","21007"
"A2OZO0I3XX690K","caus_thomas_fire_v2","3STRJBFXOWSAQYD8O5H9M77A48JTKD","2","0","0","1","1","0",,"33471","2017-09-29 18:02:22","21008"
"A265OOJYIP6ZS","caus_thomas_fire_v2","3AWETUDC92TF6FWJUULFVFTEX0GIZ7","7","0","0","0","1","1",,"115759","2017-09-29 18:03:46","21009"
"A331EA4IU21KXL","caus_thomas_fire_v2","35GCEFQ6I5P0GCE09RESR9RPEIH3ZQ","6","0","0","1","0","0",,"18836","2017-09-29 18:07:22","21010"
"ANU6OTXYGSSTX","caus_thomas_fire_v2","3EFE17QCRC6I98ZLTK9MZAVWA82SHK","8","0","0","1","0","1",,"28419","2017-09-29 18:09:21","21011"
"A2T3CNH2S6581F","caus_thomas_fire_v2","358010RM5EUVNQG4SJWDDJ3XX2FVXL","5","0","0","1","0","0",,"67177","2017-09-29 18:11:59","21012"
"A3V6A0TCMCC2UU","caus_thomas_fire_v2","3PJ71Z61R43P0II8IP6AQSAZ1VI19K","2","0","0","0","1","1",,"4109","2017-09-29 18:12:30","21013"
"A3A5A9IS2UQD6T","caus_thomas_fire_v2","369J354OFDBZME6D21O1D5N3DJRG6M","6","0","0","1","1","0",,"44268","2017-09-29 18:15:03","21014"
"ABHKTBF20ZL6G","caus_thomas_fire_v2","35GCEFQ6I5P0GCE09RESR9RPEILZ3Q","7","0","0","0","1","1",,"51012","2017-09-29 18:25:02","21015"
"A3J0ALXC5LRSSG","caus_thomas_fire_v2","3F6HPJW4JD171ZDCU4GG9VSFR2I2WT","8","0","0","1","1","0",,"30659","2017-09-29 18:28:45","21016"
"A3JU4QW2G0LZXG","caus_thomas_fire_v2","3Q5ZZ9ZEVOGOAV0HEK28TMS5T5685L","8","0","0","0","0","0",,"22202","2017-09-29 18:30:20","21017"
"A2JCYHQ0Q8BN6L","caus_thomas_fire_v2","3WYGZ5XF3WG9BY0TZ5CJC2BO2P8KSI","6","0","0","1","1","0",,"38315","2017-09-29 18:30:36","21018"
"A1LXYKU5LYGAPB","caus_thomas_fire_v2","3OONKJ5DKCKTK346MBIHTUIXI6WOB5","2","0","0","0","1","1",,"38363","2017-09-29 18:36:29","21019"
" A3C56IT6C70JAW","caus_thomas_fire_v2","34J10VATJFZ6SNVS7Y224MHASXZQIP","8","0","0","1","1","1",,"42315","2017-09-29 18:37:47","21020"
"A3UF1JLENVYPZB","caus_thomas_fire_v2","36W0OB37HWFFAKLZOC3UV3SZXN5ZHZ","8","0","0","0","1","0",,"80472","2017-09-29 18:42:05","21021"
"A1IJB6V9S475CQ","caus_thomas_fire_v2","3DPNQGW4LLGJAYDT70M04GQ0NEN46S","7","0","0","0","0","1",,"47513","2017-09-29 18:42:56","21022"
"ARUVPZHRXWN","caus_thomas_fire_v2","3W2LOLRXLBGXAJ0GKGCEMS6SGNRKRW","1","0","0","0","0","1",,"52037","2017-09-29 18:48:31","21023"
"A28PCYULZUGHDO","caus_thomas_fire_v2","3QECW5O0KH278FS5HID3KIOS7ITT5X","0","0","0","1","0","0",,"44808","2017-09-29 18:50:14","21024"
"A3NBLSA78ZXDNP
","caus_thomas_fire_v2","3T3IWE1XG6OW11B31A16ITJJ3EGTQA","8","0","0","0","1","0",,"63889","2017-09-29 18:52:32","21025"
"A1CZB5O6K9K075","caus_thomas_fire_v2","3U5NZHP4LR3LWGJT135S45QLNOZPH5","8","0","0","1","1","0",,"67477","2017-09-29 18:53:44","21026"
"A3VCGGQLXJMKFK","caus_thomas_fire_v2","3VZLGYJEYLBCWALETGLGYPGTLDPZXT","8","0","0","0","1","1",,"34523","2017-09-29 18:56:40","21027"
"A18M1IAKPX9XQT","caus_thomas_fire_v2","31UV0MXWNQDHZ1CUN6EZ6BMJW1EI56","8","0","0","0","1","1",,"27759","2017-09-29 18:57:49","21028"
" A9WETN41BVGU6","caus_thomas_fire_v2","3F0BG9B9MPOIC55IFHFZQJU3DQ77YG","6","0","0","0","0","1",,"124018","2017-09-29 19:00:40","21029"
"A264DM5HSNI3MU","caus_thomas_fire_v2","3ON104KXQKXH4DSZYIZ42APDBGG4WT","6","0","0","1","0","1",,"61192","2017-09-29 19:08:24","21030"
"A2ABFXJB7DKIBQ","caus_thomas_fire_v2","354P56DE9K4LGJT9GBNA8X62W5BS7N","7","0","0","1","1","0",,"49777","2017-09-29 19:08:52","21031"
"A2461V1TFLCLTB","caus_thomas_fire_v2","33NF62TLXJ3GCVH3CB35K1K166ZKJ6","8","0","0","0","0","1",,"170834","2017-09-29 19:19:50","21032"
"A25OEXAPBQ2LTA","caus_thomas_fire_v2","3NAPMVF0ZWGSBKCBMW84HFTYYBF27X","5","0","0","1","0","1",,"60451","2017-09-29 19:25:36","21033"
"A2LRYEBPK0K8K2","caus_thomas_fire_v2","3GNCZX450IO6MTBFVXV0NJ3HATDAPJ","4","0","0","0","0","0",,"19951","2017-09-29 19:40:02","21034"
"A28NYOARK75Z1X","caus_thomas_fire_v2","3F6HPJW4JD171ZDCU4GG9VSFR2QW2V","7","0","0","1","1","0",,"51834","2017-09-29 19:42:49","21035"
"A2HOR5GFCXLPIO","caus_thomas_fire_v2","3NGI5ARFTT6AS5YFZE27CIAE6ZA1PP","7","0","0","0","0","1",,"42962","2017-09-29 19:43:30","21036"
"AC43FSZ8WTDB1","caus_thomas_fire_v2","3J4Q2Z4UTY4OTIFXWF6H5DQI785QW4","6","0","0","1","1","0",,"58034","2017-09-29 19:47:25","21037"
"A37JGG3H4P9TA7","caus_thomas_fire_v2","34J10VATJFZ6SNVS7Y224MHASXCQI2","8","0","0","0","1","0",,"47314","2017-09-29 20:01:49","21038"
"AB6C1SZWVNQCC","caus_thomas_fire_v2","30LSNF239UWP04T75NC184J7CRZI2H","7","0","0","1","1","1",,"24888","2017-09-29 20:04:25","21039"
"A1XC103XSP8MMD","caus_thomas_fire_v2","3IAEQB9FMELU49BSRT0X5EJJOTGWD5","8","0","0","0","0","1",,"57813","2017-09-29 20:08:26","21040"
"A17E4A0FBN9RCW","caus_thomas_fire_v2","3FUI0JHJPXZZVJ77OKJJN8MAZN533G","7","0","0","1","1","1",,"30656","2017-09-29 20:12:42","21041"
"A33UZTVTPYFI0B","caus_thomas_fire_v2","3ZAK8W07I4FNDLLTKHX18JE39O50UQ","4","0","0","0","1","0",,"56970","2017-09-29 20:14:23","21042"
"A17S8Z4YJVTAZQ","caus_thomas_fire_v2","3Q8GYXHFEP3QMYQUVWIDV8OOJW9C5D","5","0","0","0","1","1",,"50163","2017-09-29 20:15:40","21043"
"A1W5D2MRLBNBJU","caus_thomas_fire_v2","3YGXWBAF70I8QFMUHRZ3QGIAJ0F4C1","4","0","0","1","1","1",,"6038","2017-09-29 20:19:30","21044"
"AIFSTYKUQOXQD","caus_thomas_fire_v2","39KFRKBFINWPXBXHW3W115GY3FXYOD","0","0","0","0","1","1",,"38495","2017-09-29 20:22:50","21045"
"A2UKE5M4IZP49P","caus_thomas_fire_v2","3O6CYIULED2GLBMEDOQMFEN7ATLUWN","8","0","0","0","1","0",,"66087","2017-09-29 20:23:05","21046"
"AWYKYM16CB00Z","caus_thomas_fire_v2","3V5Q80FXIXSAA1BOKK5E4YHIT97327","6","0","0","1","0","0",,"54311","2017-09-29 20:25:09","21047"
"A2GSLJEIPG3QD9","caus_thomas_fire_v2","39KFRKBFINWPXBXHW3W115GY3FYYOE","7","0","0","0","1","0",,"58522","2017-09-29 20:26:18","21048"
"AZRI6ABOJTIP6","caus_thomas_fire_v2","3BV8HQ2ZZW2YCNTAG1WRHJC0FP4A6W","8","0","0","0","1","1",,"24182","2017-09-29 20:33:58","21049"
"AIEJ3ECA0KG9F","caus_thomas_fire_v2","3SLE99ER0NE5J7IDOKTY9SP12BNZB8","7","0","0","0","0","1",,"22594","2017-09-29 20:38:54","21050"
"ATELLR8P2A60L
ATELLR8P2A60L
","caus_thomas_fire_v2","3EA3QWIZ4IWJK3NKO2WX9RSXC5LTIV","6","0","0","1","0","1",,"36442","2017-09-29 20:38:59","21051"
"A2Q5O64TC9HI8V","caus_thomas_fire_v2","3C44YUNSI1Q4K0ERF7M2DKBNVXSPDK","2","0","0","1","0","0",,"69379","2017-09-29 20:40:17","21052"
"A13LAT8QCT8TVJ","caus_thomas_fire_v2","3GFK2QRXX9IZ0WWZCNIE72VRBDYW5F","7","0","0","1","1","1",,"75427","2017-09-29 20:43:28","21053"
"A3DMS8XRGHRLL8","caus_thomas_fire_v2","3IX2EGZR7BK2ZZUY2VC2LD6F1ZEJRL","8","0","0","0","0","0",,"80006","2017-09-29 20:43:34","21054"
"A16MDZ7O8KL9EC","caus_thomas_fire_v2","3MTMREQS4VJW628G7J9VFDBD3R0AW0","6","0","0","0","1","0",,"54205","2017-09-29 20:44:31","21055"
"A8H8ID8CSOU66","caus_thomas_fire_v2","386CSBG1OZNQZ30R5XTD7JR5J7TQ6M","8","0","0","0","1","0",,"50916","2017-09-29 20:45:01","21056"
"A2K2QJMV8WX13G","caus_thomas_fire_v2","3PS7W85Z8Z3Q92UHK8QKWYTUTF1T9F","5","0","0","0","1","1",,"42593","2017-09-29 20:48:12","21057"
"A6OS6YO0XH58S","caus_thomas_fire_v2","3PMBY0YE2749NLS6YMVU7OTQ5T29CD","8","0","0","1","0","0",,"96330","2017-09-29 20:52:34","21058"
"A2VXM4EO7RLLWZ
","caus_thomas_fire_v2","3X65QVEQI0O4ONTFNJYKCXKL5NKLCN","5","0","0","1","0","1",,"76283","2017-09-29 20:56:02","21059"
"A3C3AH94HF81MB","caus_thomas_fire_v2","35K3O9HUABEXLT3XXZ1H78F4T3CFE6","4","0","0","1","1","1",,"35171","2017-09-29 20:58:04","21060"
"A2TKWWRN8PGZOF","caus_thomas_fire_v2","3DZQRBDBSLG3F0SMEZKKVGUMR4G3SM","5","0","0","1","1","0",,"71707","2017-09-29 20:58:24","21061"
"A2B595IM4PWWZ4","caus_thomas_fire_v2","3IRIK4HM3ALM52Q80FSINE2OFSW6C1","6","0","0","0","1","0",,"49696","2017-09-29 20:59:09","21062"
"AANPRZOU1K7JO","caus_thomas_fire_v2","3IGI0VL647LVLCT3P1NQKPIRZW4NOP","6","0","0","1","0","1",,"36350","2017-09-29 21:00:30","21063"
"A3H0TLQC53H5MB
","caus_thomas_fire_v2","3S0TNUHWKTJJE8FATQKRRYGX6NZ8DQ","4","0","0","0","1","1",,"35946","2017-09-29 21:02:32","21064"
"A1APYLD4DUK33J","caus_thomas_fire_v2","324G5B4FB39LFA9X794QYR0J1EK072","5","0","0","0","1","1",,"29979","2017-09-29 21:06:21","21065"
"A3JJG9YLVUNUIX","caus_thomas_fire_v2","3VZLGYJEYLBCWALETGLGYPGTLEIXZM","6","0","0","1","1","1",,"43005","2017-09-29 21:07:19","21066"
"A14MAPXKP686WY","caus_thomas_fire_v2","39LOEL67OS6LWGDD01EFEPULFAB38O","6","0","0","0","0","1",,"43057","2017-09-29 21:09:15","21067"
"A351NFQKQYJOVM","caus_thomas_fire_v2","38BQUHLA9W1P3U83D08Q7ATRU6ROMN","7","0","0","0","1","0",,"27719","2017-09-29 21:36:24","21068"
"A4UIXESOEZI05","caus_thomas_fire_v2","354GIDR5ZB77XZ9DMAJHJCQWTD600K","7","0","0","1","0","1",,"29519","2017-10-01 16:43:38","21069"
"A38DC3BG1ZCVZ2","caus_thomas_fire_v2","3FQ5JJ512LPCVL8OR9VXD81IF3MNKL","6","0","0","0","1","0",,"15195","2017-10-01 16:43:49","21070"
"A3V4AW6DGWBHDO","caus_thomas_fire_v2","3X73LLYYQ1FLTV7GLOS00GLQNMINHH","0","0","0","0","1","0",,"14939","2017-10-01 16:43:58","21071"
"A1IBVWKNX3OKK7","caus_thomas_fire_v2","3F6KKYWMNB24HF2EZS9A9V6SVUPDNY","8","0","0","1","1","0",,"43199","2017-10-01 16:44:25","21072"
"A3BJNFU4T7RU11","caus_thomas_fire_v2","3IFS6Q0HJIKI53A5Z2R7ZMWBAY5SIR","7","0","0","1","1","0",,"32436","2017-10-01 16:44:25","21073"
"A229AL88SNZJS7","caus_thomas_fire_v2","3ATTHHXXWAPQ1KW4TCXUYUD3PD7IXP","6","0","0","0","0","1",,"22573","2017-10-01 16:45:03","21074"
"ANVAFB99K5RKP","caus_thomas_fire_v2","3NPI0JQDAO6B1PAO1XMHIOT9YVEPTP","8","0","0","1","0","0",,"53106","2017-10-01 16:45:17","21075"
"A3ITZNJQUTIZ4C","caus_thomas_fire_v2","3OS46CRSLF0I4BW8RWNND6QD0B4V65","6","0","0","1","0","1",,"75078","2017-10-01 16:45:23","21076"
"A1NXZ2JR065E2C
","caus_thomas_fire_v2","3X87C8JFV6CVM1YOCAWG8ONX18MSQU","1","0","0","1","0","0",,"60179","2017-10-01 16:45:56","21077"
"A1JO6AY55FG7QU","caus_thomas_fire_v2","3TXMY6UCAEPFFK9SFO6GTJJFF50QCY","8","0","0","1","0","1",,"35319","2017-10-01 16:45:58","21078"
"AQERSNMMM4VR0","caus_thomas_fire_v2","3KJYX6QCM9CUS6BFBFHCMAVIMHOVJB","8","0","0","0","1","0",,"49234","2017-10-01 16:46:26","21079"
"A1YBUA89N9CV2N","caus_thomas_fire_v2","3WYP994K17SZ85RDW7A7K5U7IS6Y6H","7","0","0","0","1","1",,"28491","2017-10-01 16:47:02","21080"
"A14YQBKCHM8JPT","caus_thomas_fire_v2","3WJ1OXY92AHLG1CY9GTP1X8RLXU8A6","4","0","0","0","1","0",,"2839","2017-10-01 16:47:23","21081"
"A377LTGWJKY2IW
","caus_thomas_fire_v2","358010RM5EUVNQG4SJWDDJ3XXF3VXZ","5","0","0","1","1","0",,"33545","2017-10-01 16:47:24","21082"
"A2L3NXTP6W9B21","caus_thomas_fire_v2","3OHYZ19UGC6O1TZEGXILYJYR01XOAM","8","0","0","0","0","1",,"20242","2017-10-01 16:47:49","21083"
"A130P4M9JPT4YA","caus_thomas_fire_v2","3KYQYYSHYV8MZ02Q079NOK6XL4UODO","7","0","0","1","0","1",,"33934","2017-10-01 16:48:13","21084"
"ADXHWQLUQBK77","caus_thomas_fire_v2","3UN61F00HWQUS0FDDT88K3NAJBH5R9","8","0","0","0","1","1",,"93975","2017-10-01 16:48:56","21085"
"A1N4P4XGQM7NXE","caus_thomas_fire_v2","3KOPY89HM83AGX9WR5B63F3ZVYW3JP","4","0","0","0","0","0",,"3550","2017-10-01 16:49:09","21086"
"AK8UFPN8QOSK5","caus_thomas_fire_v2","35DR22AR5DLBBHEL89Q7UOBE6WB3XD","2","0","0","1","0","1",,"64686","2017-10-01 16:49:17","21087"
"A1CKFNKYV9OMY0","caus_thomas_fire_v2","3R6P78PK7KC5OCHPYEWUOFFHX4RTGP","7","0","0","1","1","1",,"38042","2017-10-01 16:49:34","21088"
"A2NTS2HNDOLRCR","caus_thomas_fire_v2","3QIYRE09Y3IAPKM2JZPF8T5J6YN1NZ","7","0","0","0","0","0",,"34418","2017-10-01 16:49:51","21089"
"AFV6K3HVAT6AH","caus_thomas_fire_v2","3T3IWE1XG6OW11B31A16ITJJ3R0TQK","6","0","0","1","1","0",,"10482","2017-10-01 16:50:21","21090"
"A35RZ2HKE9VWJ5","caus_thomas_fire_v2","3D8YOU6S9ELIRW78M6DIHKOUM5W6UU","5","0","0","1","0","0",,"43237","2017-10-01 16:52:26","21091"
"A3OSBMDWIRT9NZ","caus_thomas_fire_v2","3E7TUJ2EGCNJSDYKYIQ5RUB8Q699DY","3","0","0","1","0","1",,"28872","2017-10-01 16:52:33","21092"
"A2YE2I9DYV9OKW","caus_thomas_fire_v2","3TYCR1GOTCKHWG4PFXISNVL6EHZZLH","5","0","0","0","1","0",,"36064","2017-10-01 16:52:58","21093"
"A14YBHS8YBLDAG","caus_thomas_fire_v2","3OLQQLKKNSQDQVPTGPS2M67WMNMEJR","7","0","0","0","1","1",,"127457","2017-10-01 16:54:25","21094"
"A3HSQFNT76K5TF","caus_thomas_fire_v2","3C2NJ6JBKAIHE54Y23PTDCFOY41N22","8","0","0","0","1","0",,"22089","2017-10-01 16:55:31","21095"
"ASB8T0H7L99RF","caus_thomas_fire_v2","3LO69W1SU3EH5Z9KP5U32O503R5LGE","6","0","0","0","1","1",,"10392","2017-10-01 16:55:50","21096"
"AZOAPJD96KI4R","caus_thomas_fire_v2","3OE22WJIGIPB1EQS1FRGNP5LM68UQF","8","0","0","0","1","1",,"49756","2017-10-01 16:55:51","21097"
"A22LQL0UHAOMC9","caus_thomas_fire_v2","3Z3ZLGNNSIVR2KD9MVVF0GFL9TOQ33","7","0","0","1","1","1",,"30295","2017-10-01 16:56:36","21098"
"A2G4I94ODONKSY","caus_thomas_fire_v2","3H8DHMCCW9C399HB2FHUH3PO10LDKW","7","0","0","0","1","0",,"50487","2017-10-01 16:57:24","21099"
"A1DXSFFL5HZ1NX","caus_thomas_fire_v2","3IGI0VL647LVLCT3P1NQKPIRZ9XNO8","7","0","0","1","0","1",,"28233","2017-10-01 16:57:30","21100"
"A1IBDV8G5WSMFC","caus_thomas_fire_v2","3QAVNHZ3EM5GV8WH352T62UX5XTLA5","8","0","0","0","1","1",,"27986","2017-10-01 16:57:46","21101"
"A3PVOYZ9WNWAFS","caus_thomas_fire_v2","3L2IS5HSFAJQYHD0LNZZJVAGHVLNUL","5","0","0","1","1","1",,"23834","2017-10-01 16:58:08","21102"
"AUK9BH35CQ4G7","caus_thomas_fire_v2","3SB4CE2TJVWBV2D6HO5HHWPKC63XA3","1","0","0","0","1","0",,"63294","2017-10-01 16:58:36","21103"
"A22VGT2F28LTWC","caus_thomas_fire_v2","3F6HPJW4JD171ZDCU4GG9VSFRG62W9","7","0","0","1","0","1",,"30532","2017-10-01 16:59:24","21104"
"A1OK974KXKO6FJ","caus_thomas_fire_v2","3TE3O8573092T3WQVA6AMWKYZ1QR2U","7","0","0","0","1","1",,"32373","2017-10-01 17:00:06","21105"
"A1B65EVDS55AME","caus_thomas_fire_v2","3TYCR1GOTCKHWG4PFXISNVL6EI0LZ6","8","0","0","0","0","0",,"27170","2017-10-01 17:01:17","21106"
"A3PQYTQ44C8UQ4","caus_thomas_fire_v2","3CTOC39K37RSHGAJTHEWGWFF00IJ7A","7","0","0","1","0","1",,"86520","2017-10-01 17:03:04","21107"
"A1WLLC6O7Y58J3","caus_thomas_fire_v2","374TNBHA8BWSINAXBGO5QABYIUJYQH","4","0","0","0","0","0",,"45611","2017-10-01 17:03:30","21108"
"A1JUMX4BRVK85E","caus_thomas_fire_v2","3ND9UOO81K3D2LZK4AYLORROXGWWLR","6","0","0","0","0","0",,"17986","2017-10-01 17:04:03","21109"
"A1FO1SROGRL5RH","caus_thomas_fire_v2","3SLE99ER0NE5J7IDOKTY9SP12OMZBX","8","0","0","1","1","1",,"22421","2017-10-01 17:04:53","21110"
"A423QQ5WN43B9","caus_thomas_fire_v2","3RXPCZQMQPC4FS5GWVCKI9WM5M21GS","3","0","0","1","1","1",,"2178","2017-10-01 17:05:07","21111"
"A3J079WGHS1TH4","caus_thomas_fire_v2","3ZAK8W07I4FNDLLTKHX18JE392AU0H","1","0","0","0","1","0",,"264280","2017-10-01 17:06:19","21112"
"A2Z7HHTA5WOLL5","caus_thomas_fire_v2","3TMFV4NEP8FINEF1ALPHJM5IDGY8WI","6","0","0","1","1","0",,"47980","2017-10-01 17:06:35","21113"
"A20NJGHYKL73LC","caus_thomas_fire_v2","3NAPMVF0ZWGSBKCBMW84HFTYYPX72C","6","0","0","1","0","1",,"16735","2017-10-01 17:07:35","21114"
"AFU00NU09CFXE","caus_thomas_fire_v2","39GXDJN2OTF58PFWKBKLXKM466UV8R","7","0","0","1","0","0",,"30133","2017-10-01 17:09:33","21115"
"A19TMBODLD71VN","caus_thomas_fire_v2","3X3OR7WPZZ12CK3267IFABO2F9UL82","6","0","0","1","1","1",,"33359","2017-10-01 17:12:35","21116"
"A17620ICHID4N9","caus_thomas_fire_v2","3K9FOBBF2HKNFRQ6C97YS8EX44TNLS","6","0","0","1","1","1",,"31984","2017-10-01 17:13:15","21117"
"A3S0INU046UTYK","caus_thomas_fire_v2","3UOUJI6MTDFVABR4NTM8HX1EJ8UXUC","8","0","0","0","0","1",,"15646","2017-10-01 17:13:20","21118"
"ASNTJ81DXL7E8","caus_thomas_fire_v2","333U7HK6I9G8YPBTKUHIGOPBMBMJD4","6","0","0","1","0","0",,"17773","2017-10-01 17:13:42","21119"
"A2MQGU4NZZ8V0H
A2MQGU4NZZ8V0H","caus_thomas_fire_v2","30BUDKLTXDW5JWA8RNO8LWOR4MS5EX","8","0","0","0","1","0",,"45092","2017-10-01 17:13:55","21120"
